hours, minutes, seconds, microseconds, accel_x, accel_y, accel_z, linear_x, linear_y, linear_z, gravity_x, gravity_y, gravity_z, quat_w, quat_x, quat_y, quat_z, gyro_x, gyro_y, gyro_z
Initializing IMU
18,41,0,309619,1.76,-8.84,-1.33,-0.25,0.60,0.32,2.03,-9.44,-1.66,-0.76,-0.03,-0.11,0.63,-4.06,5.69,-12.31
18,41,0,832093,3.51,-8.62,-2.16,0.44,0.44,-0.06,3.07,-9.07,-2.10,-0.78,-0.06,-0.15,0.61,-1.94,-4.62,-9.13
18,41,1,349092,3.85,-8.33,-1.75,0.31,0.55,0.39,3.54,-8.88,-2.14,-0.78,-0.09,-0.16,0.60,-4.44,2.81,-1.50
18,41,1,870092,4.01,-8.11,-2.60,0.28,0.66,-0.34,3.77,-8.76,-2.25,-0.78,-0.10,-0.17,0.60,4.69,-5.56,2.37
18,41,2,387091,2.98,-8.44,-2.09,-0.47,0.51,-0.09,3.45,-8.95,-1.99,-0.77,-0.09,-0.16,0.61,-3.81,3.69,0.62
18,41,2,921091,3.30,-8.38,-2.28,-0.08,0.62,-0.15,3.31,-8.98,-2.10,-0.77,-0.08,-0.15,0.61,6.69,-5.69,5.62
18,41,3,451079,2.78,-8.68,-1.06,-0.15,0.54,0.49,2.93,-9.22,-1.56,-0.75,-0.10,-0.11,0.64,0.94,-8.31,4.12
18,41,3,966080,3.19,-8.52,-1.33,0.20,0.65,0.40,2.98,-9.17,-1.73,-0.76,-0.13,-0.09,0.63,0.06,-6.31,-8.94
18,41,4,489061,3.02,-8.49,-1.77,-0.13,0.61,-0.01,3.15,-9.11,-1.75,-0.76,-0.13,-0.11,0.63,2.44,1.87,2.62
18,41,5,9086,3.11,-8.50,-1.56,0.03,0.64,0.16,3.07,-9.15,-1.72,-0.76,-0.12,-0.10,0.63,0.69,-2.19,0.37
18,41,5,527079,3.49,-8.98,-1.59,-0.02,0.07,-0.17,3.49,-9.05,-1.40,-0.75,-0.10,-0.15,0.64,1.12,16.87,-5.44
18,41,6,45082,3.52,-8.96,-1.62,0.03,0.06,-0.07,3.49,-9.03,-1.55,-0.75,-0.12,-0.13,0.63,-6.87,5.06,4.44
18,41,6,566062,3.68,-8.98,-1.33,0.26,0.05,0.35,3.41,-9.03,-1.69,-0.75,-0.13,-0.12,0.63,-2.31,-3.50,2.56
18,41,7,85082,3.53,-8.86,-1.76,0.04,0.07,0.00,3.37,-9.03,-1.78,-0.76,-0.13,-0.12,0.63,0.94,3.06,-1.81
18,41,7,607093,3.28,-8.89,-1.57,-0.21,0.14,0.15,3.37,-9.03,-1.78,-0.76,-0.14,-0.11,0.63,2.62,-13.75,-1.94
18,41,8,126032,3.60,-8.89,-2.01,0.21,0.14,-0.24,3.38,-9.03,-1.77,-0.76,-0.14,-0.11,0.63,-1.12,1.31,1.19
18,41,8,646095,3.38,-9.12,-1.58,0.04,-0.02,-0.07,3.33,-9.09,-1.50,-0.75,-0.13,-0.12,0.64,1.75,-3.00,4.50
18,41,9,165092,3.45,-9.15,-1.19,0.12,0.00,0.24,3.19,-9.16,-1.43,-0.75,-0.12,-0.11,0.64,-0.62,1.00,1.75
18,41,9,698614,3.37,-9.20,-1.23,0.27,-0.02,0.26,3.09,-9.18,-1.49,-0.75,-0.12,-0.10,0.64,-1.00,0.37,3.00
18,41,10,214996,3.06,-9.17,-1.41,-0.02,0.01,0.05,3.05,-9.20,-1.44,-0.75,-0.12,-0.11,0.64,-0.81,-0.56,-0.81
18,41,10,741092,2.87,-9.27,-0.76,-0.11,-0.04,0.60,2.99,-9.23,-1.36,-0.75,-0.12,-0.10,0.65,4.12,-6.12,-0.37
18,41,11,262094,2.84,-9.27,-1.07,-0.15,-0.01,0.13,2.99,-9.26,-1.20,-0.74,-0.13,-0.09,0.66,5.25,-6.69,-1.25
18,41,11,784091,3.23,-9.23,-0.87,0.28,0.04,0.26,2.95,-9.28,-1.14,-0.74,-0.13,-0.09,0.66,-0.25,1.19,0.13
Initializing IMU
18,41,0,261375,0.78,-9.38,-0.50,0.53,0.53,-0.07,0.22,-9.79,-0.46,-0.71,-0.12,0.10,0.68,1.37,-0.94,-0.19
18,41,0,779094,0.55,-9.30,-0.28,0.20,0.48,0.04,0.34,-9.79,-0.32,-0.71,-0.12,0.09,0.69,1.75,-2.06,-0.25
18,41,1,297092,0.60,-9.32,-0.03,0.18,0.47,0.12,0.41,-9.79,-0.16,-0.70,-0.12,0.09,0.69,1.44,-0.94,-0.25
18,41,1,815093,0.47,-9.30,0.02,0.03,0.49,0.04,0.44,-9.79,-0.01,-0.70,-0.13,0.09,0.70,1.06,2.06,-0.19
18,41,2,335093,0.77,-9.24,0.45,0.29,0.54,0.34,0.47,-9.79,0.10,-0.69,-0.13,0.10,0.70,-2.31,4.12,-0.06
18,41,2,856093,0.60,-9.42,0.00,0.10,0.36,0.03,0.49,-9.79,-0.03,-0.70,-0.13,0.09,0.70,0.44,-4.94,-0.06
18,41,3,377093,0.37,-9.27,0.00,-0.14,0.52,-0.01,0.51,-9.79,0.00,-0.69,-0.13,0.09,0.70,0.06,-3.31,-0.31
18,41,3,897093,0.23,-9.37,0.25,-0.29,0.41,0.22,0.53,-9.79,0.03,-0.69,-0.13,0.09,0.70,0.62,-4.25,-0.88
18,41,4,416093,0.42,-9.32,0.56,-0.14,0.46,0.52,0.56,-9.79,0.03,-0.69,-0.13,0.09,0.70,1.62,-3.56,0.00
18,41,4,937091,0.34,-9.31,0.30,-0.21,0.47,0.17,0.55,-9.78,0.13,-0.69,-0.13,0.09,0.71,-3.44,0.25,0.19
18,41,5,461093,0.77,-9.23,0.00,0.21,0.55,-0.02,0.55,-9.79,0.03,-0.69,-0.13,0.09,0.70,-1.69,0.19,-0.13
18,41,5,989091,0.51,-9.30,0.22,-0.11,0.46,0.36,0.55,-9.79,-0.04,-0.70,-0.13,0.09,0.70,-0.75,-1.94,-0.13
18,41,6,517062,0.45,-8.87,-0.36,-0.10,0.91,-0.25,0.55,-9.79,-0.11,-0.70,-0.13,0.09,0.70,3.50,-6.87,1.00
18,41,7,37068,0.40,-9.45,0.34,-0.13,0.33,0.39,0.54,-9.79,-0.04,-0.70,-0.13,0.09,0.70,2.12,-2.37,-0.44
18,41,7,559084,0.70,-9.43,0.11,0.16,0.35,0.04,0.54,-9.79,0.07,-0.69,-0.12,0.08,0.70,-0.06,7.12,0.06
18,41,8,83086,0.54,-9.33,0.69,0.00,0.45,0.41,0.54,-9.78,0.27,-0.69,-0.12,0.08,0.71,-1.56,1.44,-0.13
18,41,8,605047,0.33,-9.30,0.23,-0.22,0.47,-0.07,0.55,-9.78,0.31,-0.69,-0.12,0.08,0.71,1.56,-3.69,-0.19
18,41,9,138151,0.52,-9.27,0.40,-0.03,0.51,-0.02,0.55,-9.78,0.42,-0.68,-0.12,0.08,0.72,0.13,-0.31,0.00
18,41,9,660055,0.48,-9.26,0.68,-0.07,0.51,0.16,0.56,-9.77,0.52,-0.68,-0.12,0.08,0.72,-2.12,0.25,0.13
18,41,10,183058,0.56,-9.30,0.30,0.01,0.48,0.09,0.55,-9.78,0.20,-0.69,-0.12,0.08,0.71,-1.25,1.37,-0.06
18,41,10,703093,0.48,-9.32,0.27,-0.07,0.46,0.14,0.56,-9.78,0.12,-0.69,-0.12,0.08,0.71,-0.19,0.00,-0.13
18,41,11,224092,0.47,-9.40,0.20,-0.08,0.38,0.10,0.56,-9.78,0.09,-0.69,-0.12,0.08,0.71,1.31,0.25,-0.13
18,41,11,742093,0.52,-9.35,-0.03,-0.05,0.43,-0.02,0.58,-9.78,-0.01,-0.70,-0.13,0.08,0.70,-1.50,-2.87,0.25
18,41,12,261093,0.44,-9.27,-0.32,-0.13,0.51,-0.20,0.57,-9.78,-0.11,-0.70,-0.13,0.08,0.70,-0.88,2.25,0.13
18,41,12,782090,0.50,-9.24,-0.36,-0.06,0.54,-0.32,0.57,-9.78,-0.04,-0.70,-0.12,0.08,0.70,5.75,-1.50,-0.06
18,41,13,304092,0.45,-9.25,-0.11,-0.11,0.53,-0.06,0.56,-9.79,-0.05,-0.70,-0.13,0.09,0.70,2.44,-3.25,-0.25
18,41,13,830089,0.37,-9.31,-0.07,-0.18,0.47,-0.03,0.56,-9.79,-0.04,-0.70,-0.12,0.08,0.70,-1.50,-2.56,0.31
18,41,14,351090,0.75,-9.37,0.05,0.19,0.41,0.10,0.56,-9.79,-0.04,-0.70,-0.12,0.08,0.70,-0.31,6.56,-0.44
18,41,14,870092,0.30,-9.39,0.92,-0.25,0.39,0.71,0.56,-9.78,0.21,-0.69,-0.13,0.09,0.71,9.00,-4.37,-0.19
18,41,15,391091,0.52,-9.28,0.22,-0.08,0.52,-0.02,0.55,-9.78,0.25,-0.69,-0.12,0.08,0.71,-2.50,5.06,-0.31
18,41,15,914089,0.69,-9.33,0.82,0.16,0.45,0.66,0.53,-9.79,0.15,-0.69,-0.13,0.10,0.71,2.94,-4.87,-0.13
18,41,16,434091,0.96,-9.39,0.32,0.39,0.41,-0.28,0.53,-9.78,0.34,-0.68,-0.14,0.10,0.71,-0.69,-8.81,-0.13
18,41,16,953092,0.23,-9.30,0.55,-0.30,0.48,0.26,0.54,-9.78,0.28,-0.68,-0.14,0.11,0.71,0.06,-1.94,0.25
18,41,17,471093,0.53,-9.27,0.44,0.00,0.50,0.05,0.54,-9.78,0.38,-0.68,-0.14,0.11,0.71,-0.56,1.62,-0.06
18,41,17,990093,0.71,-9.16,-0.12,0.16,0.62,-0.49,0.54,-9.78,0.37,-0.68,-0.14,0.11,0.71,3.56,5.12,0.69
18,41,18,515090,0.07,-9.29,1.02,-0.38,0.46,0.57,0.53,-9.78,0.48,-0.68,-0.14,0.11,0.72,1.00,-5.44,-0.06
18,41,19,34090,0.25,-9.24,0.33,-0.29,0.53,-0.16,0.54,-9.77,0.50,-0.67,-0.14,0.11,0.72,2.50,2.69,-0.13
18,41,19,554033,0.23,-9.27,-0.24,-0.30,0.50,-0.76,0.54,-9.77,0.51,-0.67,-0.14,0.10,0.72,0.37,2.56,-0.13
18,41,20,76093,0.65,-9.32,0.56,0.09,0.45,0.17,0.55,-9.78,0.39,-0.68,-0.14,0.10,0.71,0.00,1.37,0.13
18,41,20,598092,0.88,-9.28,0.97,0.33,0.49,0.42,0.55,-9.77,0.55,-0.67,-0.14,0.11,0.72,-0.94,-0.37,-0.13
18,41,21,123093,0.48,-9.27,0.84,-0.06,0.49,0.31,0.54,-9.77,0.52,-0.67,-0.15,0.11,0.72,1.12,0.75,-0.37
18,41,21,643093,0.66,-9.30,0.16,0.13,0.48,-0.04,0.52,-9.79,0.20,-0.68,-0.14,0.11,0.71,-8.50,0.31,0.19
18,41,22,165090,0.43,-9.23,0.62,-0.13,0.54,0.33,0.56,-9.78,0.28,-0.68,-0.14,0.10,0.71,-8.50,4.75,0.62
18,41,22,687095,0.37,-9.16,-0.44,-0.17,0.63,-0.42,0.55,-9.79,-0.01,-0.69,-0.14,0.10,0.70,1.06,-0.75,-0.13
18,41,23,213092,0.54,-9.09,-0.22,-0.02,0.69,-0.31,0.56,-9.79,0.08,-0.69,-0.13,0.10,0.70,3.12,1.00,-0.44
18,41,23,736095,0.39,-9.26,0.58,-0.16,0.52,0.45,0.56,-9.78,0.13,-0.69,-0.13,0.09,0.71,1.56,-1.31,0.19
18,41,24,254093,0.60,-9.32,0.55,0.04,0.46,0.34,0.56,-9.78,0.20,-0.69,-0.14,0.10,0.71,-0.88,0.31,0.19
18,41,24,773093,0.51,-9.32,0.39,-0.01,0.55,-0.16,0.56,-9.78,0.26,-0.68,-0.14,0.10,0.71,-4.87,0.62,0.19
18,41,25,292093,0.22,-9.30,0.25,-0.34,0.48,0.20,0.56,-9.78,0.05,-0.69,-0.14,0.10,0.70,-1.94,1.56,0.19
18,41,25,809093,0.58,-9.34,0.23,0.03,0.49,0.31,0.56,-9.79,-0.02,-0.69,-0.14,0.10,0.70,-0.44,2.50,0.00
18,41,26,328090,0.51,-9.30,0.06,-0.07,0.48,0.11,0.58,-9.78,-0.05,-0.69,-0.14,0.10,0.70,1.19,1.19,-0.31
18,41,26,848093,0.50,-9.29,0.39,-0.07,0.49,0.31,0.57,-9.78,0.07,-0.69,-0.14,0.10,0.70,0.37,2.12,-0.25
18,41,27,366091,0.55,-9.29,0.32,0.04,0.49,0.18,0.57,-9.78,0.22,-0.68,-0.14,0.11,0.71,0.31,-1.81,-0.25
18,41,27,885090,0.64,-9.29,0.20,0.06,0.49,0.00,0.57,-9.78,0.19,-0.69,-0.14,0.10,0.71,0.44,-0.50,0.31
18,41,28,405090,0.53,-9.29,0.14,-0.03,0.49,0.02,0.56,-9.78,0.11,-0.69,-0.14,0.10,0.70,-3.50,-1.87,0.06
18,41,28,927824,0.63,-9.32,0.30,-0.01,0.46,0.13,0.58,-9.78,0.15,-0.69,-0.14,0.10,0.71,-0.31,-1.12,0.37
18,41,29,454091,0.54,-9.30,0.01,-0.03,0.48,-0.08,0.58,-9.78,0.10,-0.69,-0.14,0.10,0.70,0.81,-0.31,0.06
18,41,29,974093,0.50,-9.31,0.07,-0.08,0.47,-0.10,0.59,-9.78,0.17,-0.69,-0.14,0.10,0.71,-0.44,-1.62,0.25
18,41,30,493086,0.64,-9.30,0.33,0.05,0.47,0.09,0.59,-9.78,0.23,-0.68,-0.14,0.10,0.71,-2.44,-1.75,0.00
18,41,31,13088,0.51,-9.30,0.10,-0.04,0.49,-0.01,0.59,-9.78,0.12,-0.69,-0.14,0.10,0.70,0.00,1.06,0.06
18,41,31,534095,0.49,-9.29,0.22,-0.10,0.48,0.09,0.59,-9.78,0.12,-0.69,-0.14,0.10,0.70,-0.19,0.06,-0.06
18,41,32,53093,0.56,-9.31,0.03,-0.03,0.47,-0.01,0.59,-9.78,0.05,-0.69,-0.14,0.10,0.70,1.44,-3.25,-0.37
18,41,32,574094,0.64,-9.27,-0.12,0.01,0.50,-0.09,0.62,-9.78,-0.03,-0.70,-0.13,0.09,0.70,1.25,8.31,-0.06
18,41,33,92093,0.52,-9.27,-0.04,-0.10,0.51,-0.09,0.63,-9.78,0.04,-0.69,-0.13,0.09,0.70,-1.81,0.81,0.25
18,41,33,610093,0.62,-9.16,0.05,0.01,0.61,0.09,0.60,-9.78,-0.04,-0.69,-0.14,0.09,0.70,12.37,-11.06,-1.62
18,41,34,133095,0.46,-9.35,0.50,-0.16,0.43,0.32,0.63,-9.78,0.17,-0.69,-0.14,0.10,0.71,-1.00,-0.06,0.62
18,41,34,651093,0.27,-9.31,-0.57,-0.37,0.46,-0.53,0.65,-9.78,-0.04,-0.69,-0.14,0.09,0.70,-1.00,9.13,2.81
18,41,35,170093,0.77,-9.25,-0.25,0.15,0.53,-0.24,0.61,-9.78,-0.01,-0.69,-0.14,0.09,0.70,-0.37,4.37,-0.25
18,41,35,688818,0.48,-9.48,0.62,-0.13,0.30,0.59,0.61,-9.78,0.02,-0.69,-0.14,0.10,0.70,0.31,1.44,0.00
18,41,36,206091,0.67,-9.31,0.12,0.05,0.47,0.09,0.61,-9.78,0.02,-0.69,-0.14,0.10,0.70,-1.50,-2.19,0.06
18,41,36,725091,0.63,-9.32,0.23,0.02,0.45,0.17,0.61,-9.78,0.06,-0.69,-0.14,0.10,0.70,-0.25,-0.69,0.13
18,41,37,245089,0.58,-9.30,0.26,-0.02,0.48,0.18,0.61,-9.78,0.08,-0.69,-0.14,0.10,0.70,-0.13,-0.44,-0.13
18,41,37,771092,0.56,-9.30,0.00,-0.05,0.48,-0.07,0.61,-9.78,0.06,-0.69,-0.14,0.10,0.70,-3.44,1.06,0.06
18,41,38,292032,0.59,-9.29,0.22,-0.01,0.48,0.18,0.61,-9.78,0.04,-0.69,-0.14,0.10,0.70,0.13,4.50,0.06
18,41,38,813093,0.58,-9.30,0.17,-0.02,0.47,0.14,0.60,-9.78,0.03,-0.69,-0.14,0.10,0.70,-1.06,1.81,-0.06
18,41,39,344095,0.62,-9.32,0.26,-0.02,0.46,0.17,0.60,-9.78,0.03,-0.69,-0.14,0.10,0.70,-0.50,0.19,0.06
18,41,39,878062,0.49,-9.29,0.00,-0.11,0.49,0.08,0.60,-9.78,-0.07,-0.70,-0.14,0.10,0.70,1.25,0.44,-0.13
18,41,40,399090,0.67,-9.27,-0.33,0.06,0.51,-0.24,0.60,-9.78,-0.08,-0.70,-0.14,0.10,0.70,-3.87,3.62,-0.13
18,41,40,919092,0.79,-9.31,0.19,0.19,0.47,0.15,0.60,-9.78,0.04,-0.69,-0.14,0.10,0.70,-0.19,1.44,-0.06
18,41,41,442092,0.53,-9.26,0.03,0.02,0.53,-0.43,0.60,-9.78,0.07,-0.69,-0.14,0.10,0.70,-0.56,5.56,0.06
18,41,41,964089,0.93,-9.25,-0.41,0.29,0.57,-0.55,0.60,-9.78,0.05,-0.69,-0.14,0.10,0.70,-1.87,0.75,0.37
18,41,42,484089,0.53,-9.25,-0.09,-0.07,0.53,-0.20,0.60,-9.78,0.11,-0.69,-0.15,0.11,0.70,-2.94,9.69,0.13
18,41,43,3091,0.58,-9.35,0.29,-0.02,0.43,0.29,0.61,-9.78,0.00,-0.69,-0.15,0.11,0.70,0.13,-1.44,0.06
18,41,43,525089,0.47,-9.31,-0.10,-0.11,0.46,-0.01,0.59,-9.78,-0.09,-0.70,-0.14,0.10,0.70,2.19,-9.25,-0.88
18,41,44,44089,0.63,-9.34,0.11,0.03,0.44,0.06,0.59,-9.78,0.05,-0.69,-0.14,0.10,0.70,1.06,1.87,0.00
18,41,44,564091,0.64,-9.24,-0.04,0.03,0.54,0.07,0.60,-9.78,-0.12,-0.70,-0.14,0.10,0.70,-1.00,0.13,-0.31
18,41,45,85090,0.26,-9.34,-0.02,-0.33,0.44,0.05,0.60,-9.78,-0.08,-0.70,-0.14,0.09,0.70,-1.19,-0.94,0.00
18,41,45,606090,0.41,-9.37,0.02,-0.17,0.41,0.03,0.58,-9.78,0.00,-0.69,-0.14,0.10,0.70,-2.44,-2.00,0.00
18,41,46,128170,0.46,-9.25,-0.21,-0.12,0.53,-0.08,0.59,-9.78,-0.12,-0.70,-0.15,0.10,0.70,-1.56,-3.56,0.00
18,41,46,651093,1.23,-9.32,0.38,0.59,0.45,0.58,0.63,-9.78,-0.19,-0.70,-0.15,0.10,0.69,2.37,-7.56,-1.50
18,41,47,170092,0.60,-9.32,-0.13,0.02,0.45,0.21,0.57,-9.78,-0.34,-0.70,-0.15,0.10,0.69,-1.81,-0.19,-0.25
18,41,47,697921,0.56,-9.29,-0.43,-0.01,0.48,-0.10,0.57,-9.78,-0.32,-0.70,-0.15,0.10,0.69,-0.75,5.56,0.13
18,41,48,213994,0.54,-9.29,-0.29,-0.05,0.48,-0.12,0.59,-9.78,-0.16,-0.70,-0.15,0.11,0.69,-1.69,2.25,0.00
18,41,48,740090,0.57,-9.27,-0.31,-0.02,0.50,-0.02,0.59,-9.78,-0.29,-0.70,-0.15,0.10,0.69,0.62,0.00,-0.13
18,41,49,268092,0.67,-9.31,-0.35,0.06,0.44,-0.03,0.59,-9.78,-0.38,-0.71,-0.15,0.10,0.69,-1.50,1.81,0.31
18,41,49,787091,0.67,-9.27,-0.48,0.08,0.51,-0.10,0.59,-9.78,-0.37,-0.70,-0.15,0.10,0.69,-0.06,7.06,-0.06
18,41,50,308090,0.50,-9.30,-0.53,-0.09,0.47,-0.10,0.59,-9.77,-0.42,-0.71,-0.15,0.10,0.68,-1.81,-5.06,-0.13
18,41,50,829092,0.48,-9.20,-1.12,-0.10,0.55,-0.45,0.58,-9.76,-0.67,-0.71,-0.15,0.10,0.67,-2.06,-3.81,0.37
18,41,51,351092,0.42,-9.29,-0.60,-0.14,0.47,0.00,0.56,-9.77,-0.59,-0.71,-0.15,0.11,0.68,0.13,-0.81,-0.06
18,41,51,875093,0.49,-9.28,-0.53,-0.08,0.49,-0.02,0.57,-9.77,-0.51,-0.71,-0.15,0.10,0.68,1.12,-1.44,0.00
18,41,52,394093,0.48,-9.27,-0.65,-0.09,0.49,-0.13,0.58,-9.77,-0.51,-0.71,-0.15,0.10,0.68,-0.44,1.62,0.00
18,41,52,914092,0.57,-9.30,-0.29,0.09,0.52,0.04,0.58,-9.77,-0.51,-0.71,-0.15,0.10,0.68,-2.31,1.31,0.13
18,41,53,434091,0.51,-9.31,-0.49,-0.06,0.45,0.09,0.58,-9.77,-0.58,-0.71,-0.15,0.10,0.68,-1.06,0.88,0.13
18,41,53,955092,0.59,-9.30,-0.60,0.01,0.46,-0.02,0.58,-9.77,-0.57,-0.71,-0.15,0.11,0.68,0.37,0.19,0.00
18,41,54,480091,0.48,-9.28,-0.64,-0.17,0.50,0.00,0.59,-9.77,-0.58,-0.71,-0.15,0.10,0.68,0.31,-1.19,0.00
18,41,54,999091,0.59,-9.28,-0.57,0.00,0.48,0.01,0.58,-9.77,-0.59,-0.71,-0.15,0.10,0.68,-1.00,0.44,-0.06
18,41,55,520093,0.49,-9.28,-0.40,-0.09,0.48,0.08,0.58,-9.77,-0.49,-0.71,-0.16,0.11,0.68,1.69,0.50,-0.13
18,41,56,41095,0.52,-9.27,-0.56,-0.07,0.49,-0.10,0.59,-9.77,-0.45,-0.71,-0.15,0.11,0.68,0.44,3.19,0.00
18,41,56,559090,0.52,-9.29,-0.41,-0.07,0.48,0.00,0.60,-9.77,-0.40,-0.71,-0.15,0.11,0.68,-0.13,1.37,-0.06
18,41,57,81089,0.60,-9.30,-0.11,0.00,0.47,0.23,0.60,-9.78,-0.35,-0.70,-0.15,0.11,0.69,0.37,-1.56,-0.06
18,41,57,601092,1.12,-9.30,0.70,0.54,0.47,1.09,0.57,-9.78,-0.39,-0.70,-0.16,0.12,0.68,-1.69,7.94,-0.69
18,41,58,118095,0.78,-9.30,-0.73,0.19,0.45,0.00,0.59,-9.76,-0.73,-0.72,-0.15,0.10,0.67,3.31,5.00,0.00
18,41,58,644093,0.50,-9.25,-0.79,-0.08,0.50,-0.05,0.59,-9.76,-0.73,-0.72,-0.15,0.10,0.67,-1.50,3.50,0.06
18,41,59,162092,0.53,-9.31,-0.28,-0.08,0.43,0.41,0.59,-9.76,-0.67,-0.71,-0.15,0.10,0.67,-0.75,-2.12,0.19
18,41,59,686093,0.73,-9.29,-0.68,0.15,0.46,0.05,0.58,-9.76,-0.74,-0.72,-0.16,0.10,0.67,2.81,-4.75,0.13
18,42,0,210091,0.48,-9.41,-1.00,-0.09,0.35,-0.30,0.57,-9.76,-0.69,-0.71,-0.16,0.11,0.67,-6.50,-6.31,0.37
18,42,0,728095,0.20,-9.24,-0.84,-0.40,0.42,-0.14,0.58,-9.76,-0.71,-0.71,-0.16,0.11,0.67,-4.50,-5.50,0.06
18,42,1,248093,0.49,-9.34,-0.73,-0.09,0.42,-0.10,0.58,-9.76,-0.63,-0.71,-0.16,0.11,0.67,1.00,2.81,0.00
18,42,1,769093,0.65,-9.25,-0.79,0.06,0.51,-0.17,0.59,-9.76,-0.61,-0.71,-0.16,0.11,0.68,-0.37,-4.62,0.13
18,42,2,289091,0.52,-9.28,-0.75,-0.07,0.48,-0.14,0.59,-9.76,-0.60,-0.71,-0.16,0.11,0.68,-2.81,0.06,0.00
18,42,2,810095,0.41,-9.25,-0.62,-0.15,0.51,0.01,0.57,-9.76,-0.64,-0.71,-0.16,0.11,0.67,-1.62,0.44,2.56
18,42,3,328093,0.49,-9.12,-0.43,-0.01,0.65,0.09,0.51,-9.77,-0.52,-0.71,-0.16,0.11,0.68,0.75,3.94,-1.06
18,42,3,846091,0.46,-9.24,-0.82,-0.03,0.53,-0.32,0.50,-9.78,-0.50,-0.71,-0.15,0.11,0.68,0.06,-0.06,0.88
18,42,4,367091,0.61,-9.57,-1.18,0.11,0.20,-0.67,0.49,-9.78,-0.50,-0.71,-0.15,0.11,0.68,2.94,-3.12,-3.44
18,42,4,892093,-0.76,-9.36,1.91,-1.24,0.42,2.19,0.48,-9.79,-0.28,-0.70,-0.14,0.10,0.69,4.12,7.62,0.25
18,42,5,413093,-0.21,-9.24,-0.84,-0.63,0.54,-0.51,0.42,-9.79,-0.33,-0.71,-0.13,0.10,0.69,2.12,8.88,1.44
18,42,5,933094,0.58,-9.37,-0.07,0.23,0.53,0.17,0.46,-9.79,-0.25,-0.70,-0.13,0.10,0.69,-0.88,-5.44,0.00
18,42,6,450089,0.98,-9.18,0.11,0.52,0.60,0.43,0.45,-9.79,-0.32,-0.71,-0.14,0.10,0.69,1.75,-4.31,0.06
18,42,6,970091,-0.14,-9.19,-0.11,-0.58,0.59,0.28,0.44,-9.78,-0.39,-0.71,-0.14,0.11,0.68,1.37,3.69,1.12
18,42,7,504102,0.66,-9.14,-0.14,0.18,0.65,0.00,0.47,-9.79,-0.14,-0.71,-0.10,0.07,0.70,2.81,-6.37,2.87
18,42,8,25031,0.55,-9.14,0.11,0.10,0.64,0.36,0.44,-9.79,-0.24,-0.71,-0.12,0.08,0.69,0.69,-0.75,-0.50
18,42,8,548095,-2.95,-14.12,10.29,-3.41,-4.33,10.60,0.45,-9.79,-0.30,-0.71,-0.12,0.08,0.69,37.69,-1.00,-2.62
18,42,9,67097,-0.80,-9.91,-1.22,-0.61,0.57,-0.43,0.47,-9.78,-0.51,-0.72,-0.12,0.08,0.68,-0.06,10.38,1.75
18,42,9,586094,0.17,-9.01,-0.57,-0.29,0.76,-0.05,0.47,-9.78,-0.52,-0.72,-0.12,0.08,0.68,0.00,5.75,0.13
18,42,10,112093,1.11,-9.14,-0.72,0.63,0.63,-0.16,0.47,-9.77,-0.56,-0.72,-0.12,0.08,0.68,2.81,11.06,-1.06
18,42,10,631093,0.52,-9.32,-1.06,0.03,0.45,-0.58,0.49,-9.78,-0.48,-0.72,-0.11,0.08,0.69,-3.94,11.69,0.37
18,42,11,151092,0.41,-9.53,-0.36,-0.11,0.24,0.03,0.52,-9.78,-0.40,-0.71,-0.10,0.06,0.69,-0.31,15.75,-1.25
18,42,11,669093,0.80,-9.22,-0.80,0.33,0.55,-0.22,0.47,-9.77,-0.58,-0.72,-0.11,0.07,0.68,-3.87,-5.87,1.87
18,42,12,187092,0.36,-9.12,-0.61,-0.11,0.65,-0.07,0.48,-9.77,-0.53,-0.72,-0.10,0.06,0.68,-0.69,-0.31,-0.31
18,42,12,709093,0.57,-9.31,-0.54,0.09,0.46,-0.03,0.47,-9.78,-0.50,-0.72,-0.10,0.06,0.69,-2.37,-9.75,0.94
18,42,13,227095,0.95,-9.22,-0.54,0.59,0.56,-0.07,0.36,-9.78,-0.47,-0.72,-0.07,0.04,0.69,3.44,5.62,-1.06
18,42,13,747091,0.15,-9.41,0.62,-0.39,0.39,0.64,0.41,-9.79,-0.25,-0.71,-0.08,0.04,0.70,-4.94,44.81,-0.81
18,42,14,266090,0.59,-9.22,-1.01,0.19,0.57,-0.74,0.39,-9.79,-0.26,-0.72,-0.02,-0.01,0.70,-6.25,47.38,3.00
18,42,14,784092,-0.08,-9.38,-0.41,-0.44,0.41,-0.09,0.36,-9.79,-0.31,-0.72,0.02,-0.04,0.69,1.06,-19.31,1.19
18,42,15,307089,0.34,-9.26,-0.09,0.01,0.53,0.19,0.33,-9.79,-0.29,-0.72,0.01,-0.03,0.70,-3.25,6.75,1.50
18,42,15,827091,0.01,-9.24,-0.41,-0.12,0.55,0.04,0.14,-9.79,-0.45,-0.72,0.04,-0.05,0.69,-0.69,3.94,-0.37
18,42,16,346093,0.28,-9.12,-0.36,0.15,0.67,0.12,0.13,-9.79,-0.49,-0.72,0.03,-0.04,0.69,0.81,-22.13,-0.50
18,42,16,876086,0.36,-9.33,-0.23,-0.19,0.27,0.08,0.11,-9.79,-0.45,-0.72,-0.02,0.01,0.69,-0.06,-9.13,-2.25
18,42,17,415060,0.52,-8.93,-0.74,0.40,0.85,-0.15,0.11,-9.78,-0.58,-0.73,-0.04,0.03,0.69,-2.44,-9.38,-0.94
18,42,17,935063,0.02,-9.24,-0.39,-0.05,0.54,0.11,0.08,-9.79,-0.50,-0.72,-0.06,0.05,0.69,3.31,-12.37,-1.44
18,42,18,453087,0.49,-9.40,0.13,0.31,0.38,0.61,0.17,-9.79,-0.47,-0.72,-0.10,0.08,0.69,6.69,-0.56,-4.12
18,42,18,975062,0.22,-9.32,-0.94,-0.02,0.45,-0.18,0.24,-9.77,-0.76,-0.73,-0.08,0.05,0.68,-0.88,3.94,0.81
18,42,19,497063,0.33,-9.31,-0.47,0.09,0.45,0.26,0.23,-9.77,-0.74,-0.73,-0.07,0.05,0.68,0.00,-1.37,-0.19
18,42,20,24093,0.21,-9.33,-0.27,0.12,0.47,0.45,0.21,-9.77,-0.76,-0.73,-0.08,0.06,0.68,-0.19,-0.44,0.19
18,42,20,543091,0.26,-9.26,-0.69,0.02,0.51,0.07,0.23,-9.77,-0.77,-0.73,-0.08,0.06,0.68,2.62,-2.87,0.56
18,42,21,61093,0.39,-9.26,-0.85,0.15,0.51,-0.15,0.24,-9.77,-0.69,-0.73,-0.07,0.05,0.68,0.31,-7.37,-0.50
18,42,21,580092,0.71,-9.21,-0.51,0.47,0.56,0.13,0.24,-9.78,-0.64,-0.73,-0.05,0.03,0.68,1.62,2.00,1.12
18,42,22,100093,0.30,-9.11,-0.60,0.11,0.66,0.03,0.18,-9.78,-0.64,-0.73,-0.05,0.03,0.68,-1.81,-4.56,0.56
18,42,22,622092,0.26,-9.29,-0.56,0.05,0.47,0.26,0.20,-9.76,-0.82,-0.74,-0.05,0.03,0.68,-2.44,3.31,0.75
18,42,23,148093,0.08,-9.17,-0.93,-0.24,0.57,0.24,0.16,-9.77,-0.79,-0.73,-0.03,0.02,0.68,3.00,5.12,1.94
18,42,23,668090,-0.13,-9.35,-0.94,-0.23,0.42,-0.21,0.09,-9.77,-0.72,-0.73,-0.02,0.01,0.68,-0.81,0.06,0.31
18,42,24,189083,0.04,-9.35,-0.44,-0.02,0.42,0.25,0.07,-9.78,-0.69,-0.73,-0.01,0.00,0.68,2.25,-3.56,-0.19
18,42,24,713092,-0.21,-9.28,-1.02,-0.23,0.49,-0.28,0.02,-9.77,-0.75,-0.73,-0.04,0.03,0.68,-1.62,-14.13,-0.50
18,42,25,237091,-0.20,-9.36,-0.35,-0.18,0.47,0.41,0.02,-9.78,-0.72,-0.73,-0.04,0.04,0.68,-0.31,9.56,0.25
18,42,25,757169,-0.13,-9.35,-0.75,-0.18,0.42,0.00,0.04,-9.77,-0.74,-0.73,-0.02,0.02,0.68,-0.25,3.19,0.75
18,42,26,277093,0.21,-9.21,-0.40,0.22,0.56,0.33,-0.01,-9.77,-0.74,-0.73,-0.06,0.05,0.68,4.31,-20.56,-0.19
18,42,26,794014,0.22,-9.31,-1.32,0.12,0.44,-0.41,0.10,-9.76,-0.91,-0.73,-0.09,0.08,0.67,-3.50,-6.00,-0.81
18,42,27,317091,-0.25,-9.12,-0.93,-0.37,0.63,0.26,0.09,-9.74,-1.07,-0.74,-0.12,0.10,0.66,-0.81,-7.37,1.19
18,42,27,840091,0.14,-9.35,-0.87,0.39,0.45,0.00,-0.09,-9.73,-1.15,-0.73,-0.14,0.13,0.65,0.00,10.44,3.69
18,42,28,360093,0.01,-9.07,-1.82,0.02,0.56,-0.04,0.00,-9.64,-1.78,-0.76,-0.13,0.11,0.63,-0.50,11.00,-3.25
18,42,28,880093,0.56,-9.23,-1.84,0.40,0.42,-0.17,0.16,-9.66,-1.67,-0.76,-0.12,0.09,0.64,-1.62,1.87,-1.62
18,42,29,399091,0.17,-9.16,-1.15,0.04,0.53,0.29,0.13,-9.69,-1.45,-0.75,-0.11,0.08,0.65,3.56,2.06,2.31
18,42,29,921092,0.25,-9.33,-0.69,0.12,0.41,0.38,0.12,-9.74,-1.08,-0.74,-0.09,0.08,0.66,1.50,10.75,-1.00
18,42,30,449091,0.01,-9.22,-0.78,-0.14,0.52,0.20,0.15,-9.75,-0.98,-0.74,-0.09,0.07,0.67,-0.88,1.31,0.69
18,42,30,968095,0.22,-9.26,-0.75,0.08,0.48,0.30,0.14,-9.74,-1.06,-0.74,-0.09,0.08,0.66,-1.94,2.50,0.19
18,42,31,490082,0.31,-9.24,-0.88,0.16,0.49,0.22,0.14,-9.74,-1.10,-0.74,-0.09,0.07,0.66,-1.12,4.37,0.56
18,42,32,9093,0.30,-9.25,-1.59,0.16,0.45,-0.19,0.13,-9.70,-1.39,-0.75,-0.10,0.08,0.65,-2.06,1.31,0.56
18,42,32,532095,0.41,-9.76,-0.79,0.25,0.00,0.22,0.15,-9.75,-1.01,-0.74,-0.09,0.07,0.67,6.69,-3.31,0.06
18,42,33,55093,0.22,-9.79,-0.76,0.05,-0.02,0.02,0.16,-9.77,-0.78,-0.73,-0.09,0.07,0.67,-0.31,1.75,-0.25
18,42,33,574093,-0.06,-9.81,-0.26,-0.14,0.00,0.22,0.18,-9.79,-0.49,-0.72,-0.09,0.07,0.69,2.56,-0.31,0.06
18,42,34,93093,0.15,-9.70,-0.83,-0.01,0.07,-0.11,0.17,-9.77,-0.72,-0.73,-0.09,0.07,0.68,-8.63,-7.31,0.31
18,42,34,614091,0.11,-9.75,-1.28,-0.06,-0.01,-0.13,0.17,-9.73,-1.15,-0.74,-0.10,0.07,0.66,1.31,-3.06,-0.19
18,42,35,132090,0.11,-9.67,-0.68,-0.36,0.02,0.31,0.19,-9.75,-0.94,-0.73,-0.09,0.07,0.67,3.06,6.69,0.50
18,42,35,655090,0.32,-9.78,-0.10,0.11,0.00,0.59,0.20,-9.77,-0.69,-0.73,-0.09,0.07,0.68,5.25,1.25,-0.50
18,42,36,172857,0.39,-9.93,-0.60,0.18,-0.05,-0.04,0.22,-9.78,-0.55,-0.72,-0.10,0.08,0.68,-4.62,4.25,-2.81
18,42,36,708034,0.08,-9.75,-0.50,0.16,-0.25,0.33,0.25,-9.77,-0.72,-0.73,-0.10,0.07,0.68,-11.06,24.50,-0.56
18,42,37,229091,0.13,-9.77,-1.00,-0.11,-0.03,0.12,0.25,-9.73,-1.12,-0.74,-0.10,0.07,0.66,1.00,-8.50,0.88
18,42,37,750093,0.51,-9.84,-1.76,0.25,-0.10,-0.69,0.25,-9.74,-1.07,-0.74,-0.10,0.07,0.66,3.87,-4.12,-2.87
18,42,38,274092,0.02,-9.62,-1.15,-0.21,0.12,-0.12,0.23,-9.75,-1.02,-0.74,-0.10,0.07,0.67,1.00,0.31,0.44
18,42,38,794093,0.23,-9.76,-0.73,0.03,0.00,0.23,0.20,-9.75,-0.97,-0.73,-0.10,0.08,0.67,0.75,0.94,0.69
18,42,39,315091,0.66,-9.75,-1.13,0.45,0.00,-0.16,0.21,-9.75,-0.97,-0.73,-0.10,0.08,0.67,-0.50,7.94,0.44
18,42,39,838089,0.24,-9.68,-1.10,0.05,0.06,-0.12,0.19,-9.75,-0.98,-0.73,-0.10,0.08,0.67,-0.56,4.44,-0.06
18,42,40,360091,0.49,-9.72,-1.05,0.28,0.02,-0.03,0.21,-9.75,-1.01,-0.74,-0.10,0.08,0.67,0.44,0.06,0.31
18,42,40,886093,0.21,-9.73,-0.74,0.00,0.01,0.26,0.20,-9.75,-1.01,-0.74,-0.11,0.08,0.66,-0.75,-0.81,0.31
18,42,41,405091,0.55,-9.75,-1.08,0.33,0.00,-0.08,0.22,-9.75,-0.99,-0.73,-0.11,0.08,0.67,-0.62,-1.31,-0.13
18,42,41,931091,0.71,-9.62,-1.07,0.49,0.12,-0.06,0.22,-9.75,-1.01,-0.73,-0.11,0.08,0.66,-0.13,-3.19,0.75
18,42,42,451091,0.02,-9.77,-0.74,-0.21,-0.02,0.26,0.24,-9.75,-1.01,-0.73,-0.11,0.08,0.66,0.31,-5.62,1.31
18,42,42,973091,0.29,-9.68,-1.14,0.07,0.06,-0.09,0.21,-9.74,-1.04,-0.74,-0.11,0.09,0.66,-0.25,2.44,0.62
18,42,43,494092,0.52,-9.61,-1.14,0.32,0.12,-0.03,0.20,-9.74,-1.10,-0.74,-0.11,0.09,0.66,-2.37,9.38,-1.81
18,42,44,12095,0.24,-9.86,-1.14,0.00,0.03,0.14,0.17,-9.74,-1.09,-0.74,-0.12,0.09,0.66,0.13,7.37,0.00
18,42,44,531093,0.00,-9.77,-1.14,-0.16,-0.02,-0.08,0.17,-9.74,-1.06,-0.74,-0.11,0.09,0.66,-1.00,0.44,0.25
18,42,45,51090,0.32,-9.66,-1.07,0.16,0.07,-0.01,0.15,-9.74,-1.05,-0.73,-0.12,0.10,0.66,-0.62,-14.13,0.19
18,42,45,570090,0.63,-9.63,-0.83,0.45,0.11,0.21,0.18,-9.74,-1.04,-0.74,-0.11,0.09,0.66,0.62,-17.81,-0.13
18,42,46,88826,0.67,-9.73,-1.27,0.48,0.01,-0.17,0.18,-9.74,-1.09,-0.74,-0.11,0.09,0.66,0.50,-0.06,0.06
18,42,46,615092,0.45,-9.70,-1.26,0.26,0.03,-0.14,0.18,-9.74,-1.12,-0.74,-0.12,0.09,0.66,-0.37,3.50,0.25
18,42,47,134093,0.62,-9.60,-1.45,0.41,0.13,-0.30,0.21,-9.73,-1.14,-0.74,-0.11,0.09,0.66,-0.56,5.69,0.13
18,42,47,656094,0.64,-9.76,-1.46,0.46,-0.02,-0.34,0.18,-9.74,-1.11,-0.74,-0.12,0.09,0.66,-0.56,6.37,0.19
18,42,48,179093,0.33,-9.82,-1.11,0.15,-0.08,0.02,0.18,-9.73,-1.14,-0.74,-0.12,0.09,0.66,-1.37,2.75,0.19
18,42,48,698094,0.63,-9.58,-0.91,0.39,0.14,0.26,0.23,-9.73,-1.17,-0.74,-0.12,0.09,0.66,1.00,2.75,4.19
18,42,49,219092,0.19,-9.70,-1.00,0.00,0.03,0.11,0.18,-9.74,-1.12,-0.74,-0.12,0.09,0.66,-0.13,4.37,0.56
18,42,49,737093,-0.25,-9.72,-0.49,-0.41,0.01,0.63,0.16,-9.74,-1.12,-0.74,-0.12,0.09,0.66,-2.56,-8.06,-0.75
18,42,50,255091,0.31,-9.82,-1.28,0.11,-0.10,-0.05,0.19,-9.72,-1.23,-0.74,-0.11,0.08,0.66,1.62,-11.19,0.62
18,42,50,782093,0.33,-9.86,-0.87,0.14,-0.13,0.34,0.17,-9.72,-1.22,-0.74,-0.12,0.09,0.66,2.44,7.87,2.69
18,42,51,300093,-0.33,-10.05,-1.56,-0.47,-0.31,-0.37,0.13,-9.73,-1.18,-0.74,-0.12,0.10,0.66,-1.62,-5.81,0.25
18,42,51,832089,0.52,-9.74,-1.07,0.34,0.00,0.06,0.17,-9.73,-1.13,-0.74,-0.11,0.09,0.66,-0.69,-5.19,-1.44
18,42,52,350092,0.59,-9.88,-1.18,0.45,-0.14,-0.05,0.13,-9.74,-1.13,-0.74,-0.11,0.09,0.66,-3.25,8.69,-1.25
18,42,52,881090,0.19,-9.90,-1.98,0.39,0.00,-0.17,0.13,-9.73,-1.13,-0.74,-0.12,0.10,0.66,-5.12,1.25,-1.69
18,42,53,416091,0.46,-9.59,-1.02,0.33,0.13,0.18,0.12,-9.73,-1.21,-0.74,-0.12,0.10,0.66,-1.06,-4.87,-1.69
18,42,53,937086,0.10,-9.42,-1.30,-0.02,0.30,-0.09,0.12,-9.73,-1.21,-0.74,-0.12,0.10,0.66,0.00,-4.12,0.00
18,42,54,456088,0.33,-9.58,-0.96,0.20,0.14,0.21,0.12,-9.73,-1.17,-0.74,-0.11,0.09,0.66,1.25,0.69,-0.56
18,42,54,975093,-0.09,-9.62,-0.68,-0.19,0.12,0.40,0.10,-9.74,-1.08,-0.74,-0.12,0.10,0.66,-0.13,23.50,-0.56
18,42,55,496076,-0.54,-9.68,-0.28,-0.43,0.08,0.60,-0.11,-9.76,-0.88,-0.73,-0.09,0.09,0.67,1.25,-4.81,1.69
18,42,56,26083,1.91,-9.54,-2.04,1.78,0.20,-1.08,0.12,-9.75,-0.95,-0.73,-0.12,0.10,0.66,-1.19,5.56,-5.25
18,42,56,545080,-0.36,-9.74,-0.54,-0.48,0.03,0.24,0.11,-9.77,-0.78,-0.72,-0.12,0.11,0.67,2.19,-3.37,1.56
18,42,57,65082,0.16,-9.77,-0.55,0.04,0.00,0.18,0.12,-9.77,-0.73,-0.72,-0.12,0.11,0.67,0.50,-3.37,0.13
18,42,57,583067,0.46,-9.75,-0.69,0.32,0.02,0.07,0.14,-9.77,-0.76,-0.72,-0.12,0.11,0.67,-0.56,-3.75,-0.31
18,42,58,102086,0.27,-9.78,-0.42,0.11,0.00,0.31,0.16,-9.77,-0.74,-0.72,-0.12,0.10,0.67,-0.37,9.88,-1.00
18,42,58,626085,0.12,-9.93,-0.22,-0.05,-0.14,0.29,0.18,-9.79,-0.52,-0.71,-0.13,0.11,0.68,-3.56,-1.12,-0.06
18,42,59,145092,0.21,-9.67,-0.28,0.02,0.11,0.32,0.18,-9.78,-0.60,-0.72,-0.13,0.11,0.68,-0.31,0.13,-0.31
18,42,59,666093,0.35,-9.82,-0.69,0.17,-0.03,-0.03,0.18,-9.78,-0.65,-0.72,-0.13,0.11,0.67,-0.88,-0.44,0.25
18,43,0,185092,-0.33,-9.70,-0.96,-0.52,0.06,-0.18,0.18,-9.77,-0.77,-0.72,-0.13,0.11,0.67,0.56,0.94,-0.81
18,43,0,708092,0.20,-9.81,-0.50,0.00,-0.03,0.27,0.20,-9.77,-0.77,-0.72,-0.13,0.11,0.67,-0.06,2.31,0.31
18,43,1,233091,0.42,-9.77,-0.79,0.22,0.00,-0.03,0.19,-9.77,-0.75,-0.72,-0.13,0.11,0.67,-0.75,-9.06,-0.19
18,43,1,755089,0.29,-9.75,-0.77,0.09,0.02,-0.02,0.19,-9.77,-0.74,-0.72,-0.13,0.11,0.67,0.13,-3.19,-0.44
18,43,2,276089,0.36,-9.73,-0.78,0.16,0.04,-0.05,0.19,-9.77,-0.73,-0.72,-0.13,0.11,0.67,-0.50,1.50,-0.13
18,43,2,794093,0.27,-9.71,-0.60,0.08,0.06,0.12,0.18,-9.77,-0.73,-0.72,-0.13,0.11,0.67,0.00,-1.19,0.06
18,43,3,312090,0.14,-9.72,-0.74,-0.04,0.05,-0.01,0.18,-9.77,-0.72,-0.72,-0.13,0.11,0.67,0.50,8.75,-0.75
18,43,3,837090,0.75,-9.89,-0.71,0.57,-0.11,0.00,0.18,-9.77,-0.72,-0.72,-0.14,0.12,0.67,0.44,3.56,0.06
18,43,4,355090,0.30,-9.85,-0.19,0.10,-0.08,0.56,0.19,-9.77,-0.76,-0.72,-0.14,0.11,0.67,1.81,5.37,0.31
18,43,4,878090,-0.22,-9.76,-0.09,-0.43,0.01,0.53,0.21,-9.78,-0.63,-0.72,-0.13,0.11,0.68,0.50,0.06,0.44
18,43,5,400088,-0.30,-9.73,-0.66,-0.51,0.04,-0.05,0.20,-9.78,-0.60,-0.72,-0.13,0.11,0.68,2.75,-9.56,1.44
18,43,5,919091,0.28,-9.77,-0.14,-0.34,-0.05,0.23,0.29,-9.79,-0.29,-0.70,-0.15,0.12,0.69,3.94,-12.00,1.50
18,43,6,442091,0.63,-9.83,-0.60,0.22,-0.03,-0.38,0.24,-9.80,-0.23,-0.70,-0.15,0.13,0.69,0.06,-11.44,-0.31
18,43,6,962089,1.47,-9.57,-0.71,1.14,0.22,-0.37,0.33,-9.79,-0.34,-0.70,-0.17,0.14,0.68,-4.06,2.94,-0.94
18,43,7,481091,0.32,-9.75,-0.38,0.10,0.04,-0.01,0.21,-9.79,-0.37,-0.70,-0.16,0.14,0.68,-0.06,0.69,-0.62
18,43,8,3092,0.04,-9.82,-0.23,-0.19,-0.03,0.13,0.23,-9.79,-0.36,-0.70,-0.16,0.14,0.68,-0.69,2.69,-0.13
18,43,8,522095,0.25,-9.77,-0.46,0.00,0.02,-0.07,0.25,-9.79,-0.39,-0.70,-0.16,0.14,0.68,0.44,-1.56,0.19
18,43,9,44095,0.10,-9.77,0.02,0.03,-0.11,0.12,0.26,-9.79,-0.32,-0.70,-0.16,0.14,0.68,-0.37,-1.25,-0.81
18,43,9,563092,0.20,-9.76,-0.25,-0.06,0.03,0.07,0.26,-9.79,-0.32,-0.70,-0.16,0.14,0.68,-0.06,0.88,-0.25
18,43,10,85087,0.06,-9.74,-0.50,-0.21,0.05,-0.15,0.27,-9.79,-0.35,-0.70,-0.16,0.14,0.68,-0.75,-1.81,-0.13
18,43,10,606095,-0.09,-9.75,-0.28,-0.35,0.04,0.11,0.26,-9.79,-0.39,-0.70,-0.16,0.14,0.68,-1.75,-0.06,0.62
18,43,11,135092,0.26,-9.88,-0.50,0.00,-0.08,-0.12,0.25,-9.79,-0.38,-0.70,-0.16,0.14,0.68,0.88,-3.25,0.06
18,43,11,653093,0.25,-9.73,-0.41,0.00,0.05,-0.04,0.25,-9.79,-0.37,-0.70,-0.16,0.14,0.68,0.31,-0.75,0.06
18,43,12,172092,-0.16,-9.82,-0.46,-0.41,-0.03,-0.06,0.25,-9.79,-0.39,-0.70,-0.16,0.14,0.68,-0.62,-0.62,0.50
18,43,12,692093,0.34,-9.74,-0.43,0.10,0.05,0.01,0.24,-9.79,-0.44,-0.70,-0.16,0.14,0.68,-0.44,1.37,1.44
18,43,13,212092,-0.01,-9.59,-0.44,-0.22,-0.01,0.22,0.24,-9.79,-0.50,-0.71,-0.16,0.14,0.67,-0.25,-2.12,0.25
18,43,13,733094,0.08,-9.66,-0.60,0.04,0.10,-0.19,0.24,-9.79,-0.48,-0.71,-0.16,0.14,0.68,-0.75,-0.88,-0.31
18,43,14,251091,0.30,-9.67,-0.39,0.05,0.11,0.12,0.24,-9.78,-0.52,-0.71,-0.16,0.14,0.67,0.94,1.25,-0.13
18,43,14,774093,0.38,-9.89,-0.54,0.14,-0.10,-0.01,0.24,-9.78,-0.53,-0.71,-0.17,0.14,0.67,-0.13,-2.19,-0.25
18,43,15,295031,0.58,-9.86,-0.61,0.32,-0.07,-0.06,0.25,-9.78,-0.55,-0.71,-0.17,0.14,0.67,0.75,-0.44,-0.06
18,43,15,817093,-0.08,-9.76,-0.67,-0.32,0.01,-0.11,0.24,-9.78,-0.55,-0.71,-0.16,0.14,0.67,-0.56,-14.06,-0.81
18,43,16,340091,0.14,-9.73,-0.46,-0.10,0.05,0.14,0.24,-9.78,-0.60,-0.71,-0.17,0.14,0.67,0.37,-4.31,-0.37
18,43,16,858093,-0.19,-9.77,-1.34,-0.67,0.50,0.89,0.24,-9.78,-0.58,-0.71,-0.17,0.14,0.67,-2.31,-9.88,0.69
18,43,17,377093,-0.02,-9.86,-0.67,-0.29,-0.07,-0.09,0.26,-9.78,-0.58,-0.71,-0.17,0.14,0.67,1.00,-2.37,0.19
18,43,17,898091,0.35,-9.80,-0.50,0.09,-0.02,0.04,0.26,-9.78,-0.55,-0.71,-0.17,0.14,0.67,-0.31,0.88,-0.50
18,43,18,418090,0.22,-9.63,-0.52,-0.04,0.15,0.02,0.27,-9.78,-0.55,-0.71,-0.17,0.14,0.67,-0.69,-1.00,0.06
18,43,18,941093,-0.79,-9.40,-1.00,-1.06,0.37,-0.42,0.27,-9.78,-0.58,-0.71,-0.17,0.14,0.67,0.94,3.31,-0.75
18,43,19,462093,0.79,-9.79,-0.69,0.48,0.00,-0.21,0.31,-9.78,-0.48,-0.70,-0.17,0.14,0.68,2.87,5.25,-0.75
18,43,19,979093,0.43,-9.77,-0.13,0.09,0.01,0.16,0.33,-9.79,-0.30,-0.70,-0.17,0.14,0.68,-3.25,-0.13,0.13
18,43,20,499093,0.30,-9.74,-0.56,-0.02,0.03,0.00,0.32,-9.78,-0.57,-0.71,-0.17,0.14,0.67,-1.69,0.00,0.13
18,43,21,20090,0.14,-9.71,-0.74,-0.17,0.05,0.00,0.32,-9.77,-0.74,-0.71,-0.17,0.14,0.67,-2.31,-0.88,0.06
18,43,21,543093,0.36,-9.74,-0.72,0.04,0.02,0.09,0.32,-9.76,-0.81,-0.72,-0.17,0.13,0.66,-0.44,0.31,-0.13
18,43,22,64094,0.26,-9.79,-0.70,-0.05,-0.02,0.06,0.32,-9.77,-0.76,-0.71,-0.17,0.13,0.67,0.06,1.06,-0.69
18,43,22,582089,0.33,-9.70,-0.88,0.01,0.05,0.01,0.32,-9.75,-0.90,-0.72,-0.16,0.13,0.66,-1.44,1.19,-0.31
18,43,23,99089,0.25,-9.73,-0.79,-0.06,0.02,0.12,0.31,-9.75,-0.91,-0.72,-0.16,0.13,0.66,-0.19,0.06,-0.19
18,43,23,619093,0.29,-9.71,-0.87,0.02,0.02,0.04,0.31,-9.75,-0.90,-0.72,-0.16,0.13,0.66,0.19,0.94,-0.13
18,43,24,151094,0.10,-9.68,-0.73,-0.15,0.02,0.06,0.30,-9.76,-0.84,-0.72,-0.17,0.13,0.66,2.56,2.69,-0.25
18,43,24,669743,0.33,-9.61,-0.69,-0.02,0.18,0.07,0.31,-9.77,-0.78,-0.72,-0.16,0.13,0.67,-1.56,-2.37,0.69
18,43,25,192094,0.39,-9.75,-0.80,0.08,0.01,0.06,0.30,-9.76,-0.87,-0.72,-0.16,0.13,0.66,-0.69,3.25,-0.25
18,43,25,711094,0.16,-9.77,-0.82,-0.13,-0.01,0.12,0.30,-9.75,-0.95,-0.72,-0.16,0.13,0.66,-2.62,-0.56,0.25
18,43,26,233093,0.24,-9.67,-0.96,-0.05,0.07,0.09,0.29,-9.74,-1.05,-0.73,-0.17,0.13,0.66,1.31,0.62,0.00
18,43,26,753094,0.34,-9.74,-0.86,0.04,-0.02,0.03,0.29,-9.75,-0.92,-0.72,-0.16,0.13,0.66,2.06,0.56,0.00
18,43,27,271092,0.34,-9.78,-0.67,0.04,-0.01,0.13,0.30,-9.76,-0.80,-0.72,-0.16,0.13,0.67,-0.25,-3.25,-0.13
18,43,27,792095,0.25,-9.76,-0.70,-0.04,0.00,0.15,0.30,-9.76,-0.85,-0.72,-0.16,0.13,0.66,-2.25,3.00,0.19
18,43,28,310093,0.37,-9.74,-0.96,0.12,0.00,0.10,0.30,-9.74,-1.06,-0.73,-0.17,0.13,0.66,-1.25,1.25,-0.06
18,43,28,828093,0.20,-9.70,-1.23,-0.09,0.03,-0.14,0.29,-9.74,-1.09,-0.73,-0.17,0.13,0.65,1.37,1.44,0.06
18,43,29,352093,0.44,-9.79,-0.82,0.15,-0.04,0.12,0.29,-9.75,-0.94,-0.72,-0.17,0.13,0.66,0.56,4.56,0.00
18,43,29,870093,0.34,-9.79,-0.72,0.03,-0.03,0.15,0.31,-9.76,-0.88,-0.72,-0.16,0.13,0.66,-0.25,-0.13,0.19
18,43,30,390091,0.33,-9.73,-0.86,0.02,0.02,0.02,0.31,-9.76,-0.88,-0.72,-0.16,0.12,0.66,-0.19,7.31,0.25
18,43,30,908091,0.09,-9.67,-0.79,-0.23,0.09,0.03,0.32,-9.76,-0.82,-0.72,-0.16,0.13,0.66,-0.25,7.00,-0.50
18,43,31,426093,0.40,-9.75,-0.69,0.06,0.00,0.17,0.33,-9.76,-0.86,-0.72,-0.16,0.13,0.66,-2.06,1.81,0.19
18,43,31,950092,0.56,-9.73,-1.09,0.23,0.01,-0.04,0.33,-9.74,-1.05,-0.73,-0.16,0.13,0.66,-1.44,-2.50,0.06
18,43,32,470092,0.38,-9.71,-0.77,0.10,0.04,0.13,0.27,-9.76,-0.90,-0.72,-0.17,0.13,0.66,0.75,3.37,-0.50
18,43,32,992090,0.13,-9.57,0.23,-0.14,0.19,1.05,0.28,-9.76,-0.81,-0.72,-0.16,0.13,0.66,2.00,-3.69,1.25
18,43,33,521089,0.30,-9.67,-0.71,-0.14,0.04,-0.05,0.28,-9.77,-0.67,-0.71,-0.16,0.13,0.67,2.37,0.75,-0.31
18,43,34,51825,0.33,-9.77,-0.38,0.09,0.00,0.30,0.24,-9.77,-0.69,-0.72,-0.15,0.12,0.67,0.31,1.75,-0.13
18,43,34,579092,0.26,-9.72,-0.43,0.02,0.00,0.09,0.22,-9.78,-0.62,-0.72,-0.14,0.12,0.67,2.00,2.62,-0.37
18,43,35,99095,-0.28,-9.82,-0.74,-0.47,-0.03,-0.20,0.18,-9.78,-0.54,-0.71,-0.14,0.12,0.68,1.75,2.25,-0.50
18,43,35,620090,0.04,-9.78,-0.56,-0.16,0.00,-0.09,0.21,-9.79,-0.47,-0.71,-0.14,0.11,0.68,-0.69,0.37,0.50
18,43,36,143089,0.11,-9.72,-0.31,-0.09,0.07,0.12,0.20,-9.79,-0.44,-0.71,-0.13,0.11,0.68,0.50,-0.44,-0.75
18,43,36,666089,0.23,-9.96,-0.34,0.00,-0.16,0.06,0.23,-9.79,-0.40,-0.71,-0.13,0.11,0.68,-0.69,-3.94,0.31
18,43,37,188089,0.06,-9.65,-0.33,-0.12,0.14,0.15,0.18,-9.79,-0.48,-0.71,-0.13,0.11,0.68,-0.31,-10.50,4.12
18,43,37,712080,0.22,-9.80,-0.44,0.03,-0.01,0.04,0.17,-9.79,-0.42,-0.71,-0.13,0.11,0.68,2.50,-2.31,-0.31
18,43,38,231095,0.21,-9.79,-0.19,0.01,0.00,0.12,0.19,-9.79,-0.32,-0.71,-0.13,0.11,0.69,0.62,-1.37,-0.56
18,43,38,752063,0.17,-9.82,-0.52,-0.03,-0.03,0.00,0.21,-9.79,-0.51,-0.71,-0.13,0.11,0.68,-2.75,2.31,0.50
18,43,39,274085,0.69,-9.75,-0.49,0.49,0.03,0.01,0.20,-9.79,-0.51,-0.71,-0.13,0.11,0.68,-1.62,-2.50,0.50
18,43,39,796092,-0.05,-9.84,-0.46,-0.22,-0.05,0.11,0.16,-9.78,-0.57,-0.72,-0.13,0.11,0.68,1.06,-4.50,0.50
18,43,40,314092,0.27,-9.78,-0.19,0.11,0.04,0.19,0.18,-9.79,-0.47,-0.71,-0.13,0.11,0.68,-0.25,-2.44,0.69
18,43,40,833092,0.00,-9.76,-0.63,-0.18,0.02,-0.15,0.17,-9.79,-0.48,-0.71,-0.13,0.11,0.68,2.00,-4.12,0.13
18,43,41,354090,0.14,-9.79,-0.23,-0.04,0.00,0.07,0.18,-9.80,-0.30,-0.71,-0.13,0.11,0.69,-0.81,-1.06,0.50
18,43,41,880092,0.11,-9.81,-0.52,-0.14,-0.01,-0.17,0.21,-9.79,-0.35,-0.71,-0.13,0.11,0.69,-0.13,-2.12,-0.06
18,43,42,399094,0.00,-9.75,-0.20,-0.19,0.04,0.15,0.20,-9.79,-0.35,-0.71,-0.13,0.11,0.69,2.25,-2.87,0.56
18,43,42,920091,0.05,-9.79,-0.36,-0.16,0.00,-0.03,0.22,-9.79,-0.32,-0.71,-0.13,0.11,0.69,-1.06,-0.31,0.00
18,43,43,442090,0.24,-9.76,-0.54,0.06,0.02,-0.20,0.18,-9.79,-0.33,-0.71,-0.13,0.11,0.69,0.81,-0.06,0.06
18,43,43,962034,0.29,-9.77,-0.34,0.19,0.02,-0.11,0.10,-9.80,-0.23,-0.71,-0.12,0.11,0.69,1.00,4.25,-0.56
18,43,44,485090,-0.15,-9.80,-0.40,-0.19,0.00,-0.12,0.04,-9.80,-0.27,-0.71,-0.12,0.11,0.69,-1.69,-1.62,0.44
18,43,45,4093,-0.02,-9.81,-0.03,-0.22,-0.01,0.17,0.08,-9.80,-0.14,-0.71,-0.10,0.09,0.70,1.25,2.31,0.13
18,43,45,524092,0.10,-9.75,0.27,0.00,0.05,0.35,0.10,-9.80,-0.08,-0.70,-0.10,0.09,0.70,-0.25,-1.75,-0.31
18,43,46,43091,0.10,-9.80,-0.41,0.00,0.00,-0.03,0.10,-9.79,-0.38,-0.71,-0.10,0.09,0.69,-0.75,-1.44,-0.31
18,43,46,564091,0.13,-9.77,-0.85,0.03,0.01,-0.37,0.09,-9.79,-0.48,-0.72,-0.10,0.08,0.68,-0.06,4.75,0.69
18,43,47,93093,0.42,-9.79,-0.26,0.31,0.00,0.23,0.10,-9.79,-0.50,-0.72,-0.10,0.08,0.68,-0.50,-5.50,-0.50
18,43,47,613093,0.17,-9.83,-0.75,0.07,-0.04,-0.21,0.10,-9.79,-0.53,-0.72,-0.10,0.09,0.68,0.00,-4.12,0.13
18,43,48,136092,0.09,-9.77,-0.47,-0.01,0.01,0.03,0.10,-9.79,-0.50,-0.72,-0.10,0.08,0.68,1.62,0.75,0.19
18,43,48,656095,0.19,-9.80,-0.52,0.07,0.00,-0.03,0.11,-9.79,-0.48,-0.72,-0.10,0.09,0.68,-0.50,0.62,0.37
18,43,49,178093,0.04,-9.82,-0.43,-0.06,-0.03,0.03,0.10,-9.79,-0.47,-0.72,-0.10,0.09,0.68,0.13,-0.25,0.06
18,43,49,702093,0.00,-9.81,-0.35,-0.10,-0.01,0.07,0.10,-9.79,-0.42,-0.72,-0.10,0.09,0.69,0.50,-0.69,-0.06
18,43,50,222095,0.08,-9.84,-0.54,-0.02,-0.04,-0.07,0.10,-9.79,-0.46,-0.72,-0.10,0.09,0.68,-1.19,1.25,0.31
18,43,50,742124,0.28,-9.78,-0.56,0.19,0.01,-0.09,0.09,-9.79,-0.47,-0.72,-0.10,0.08,0.68,-0.50,1.87,2.87
18,43,51,260090,-0.26,-9.76,-0.42,-0.22,0.03,0.05,-0.04,-9.79,-0.47,-0.72,-0.08,0.08,0.68,3.31,5.06,0.56
18,43,51,778091,-0.04,-9.87,-0.24,0.00,-0.07,0.04,-0.05,-9.80,-0.28,-0.71,-0.06,0.06,0.69,-2.69,0.13,0.00
18,43,52,303092,-0.15,-9.81,-0.32,-0.09,-0.01,0.09,-0.05,-9.79,-0.42,-0.72,-0.06,0.07,0.69,0.69,2.12,-0.19
18,43,52,820089,-0.06,-9.80,-0.30,0.01,0.00,0.13,-0.04,-9.79,-0.41,-0.72,-0.06,0.07,0.69,0.13,0.50,-0.13
18,43,53,337623,-0.01,-9.77,-0.41,0.00,0.00,-0.01,-0.04,-9.79,-0.39,-0.72,-0.06,0.07,0.69,2.44,0.94,-0.19
18,43,53,862091,-0.38,-9.85,-0.26,-0.32,-0.04,0.04,-0.05,-9.80,-0.31,-0.72,-0.06,0.06,0.69,-0.69,-13.44,0.31
18,43,54,385091,-0.09,-9.53,-0.40,0.00,0.26,-0.02,-0.08,-9.79,-0.38,-0.72,-0.06,0.06,0.69,-2.31,-21.25,0.13
18,43,54,906091,-0.05,-9.76,-0.69,0.03,0.02,-0.17,-0.08,-9.79,-0.52,-0.72,-0.07,0.07,0.68,1.06,-6.37,-0.37
18,43,55,428091,-0.56,-9.91,-0.23,-0.47,-0.12,0.29,-0.08,-9.79,-0.52,-0.72,-0.07,0.07,0.68,-1.69,-21.69,0.94
18,43,55,947087,-0.03,-9.79,-0.38,0.05,0.00,0.08,-0.08,-9.79,-0.47,-0.72,-0.07,0.07,0.69,0.44,-0.56,-0.50
18,43,56,470095,0.01,-9.76,-0.26,0.08,0.03,0.17,-0.06,-9.79,-0.44,-0.72,-0.07,0.07,0.69,2.44,4.75,-0.37
18,43,56,993093,0.30,-9.82,-0.01,0.32,-0.02,0.19,-0.01,-9.80,-0.20,-0.71,-0.07,0.07,0.70,0.56,-1.06,0.13
18,43,57,515094,-0.56,-9.77,-0.19,-0.54,0.02,0.11,-0.01,-9.80,-0.30,-0.71,-0.07,0.07,0.69,-3.50,-1.62,1.12
18,43,58,36091,-0.10,-9.80,-0.55,-0.08,-0.01,-0.11,-0.02,-9.79,-0.44,-0.72,-0.07,0.07,0.69,1.94,0.88,-0.06
18,43,58,554095,0.39,-9.80,-0.21,0.41,0.00,0.06,-0.01,-9.80,-0.28,-0.71,-0.07,0.07,0.69,-1.37,3.00,0.44
18,43,59,74093,-0.06,-9.78,0.06,-0.05,0.02,0.25,-0.01,-9.80,-0.18,-0.71,-0.07,0.07,0.70,1.31,-5.06,-0.06
18,43,59,599093,-0.08,-9.84,-0.04,-0.07,-0.04,0.11,-0.01,-9.80,-0.15,-0.71,-0.07,0.07,0.70,-0.31,-1.75,0.50
18,44,0,117093,0.07,-9.83,0.06,0.10,-0.02,0.17,-0.02,-9.80,-0.11,-0.71,-0.07,0.07,0.70,-0.50,-0.81,-0.06
18,44,0,638094,0.17,-9.85,-0.04,0.18,-0.04,0.15,-0.01,-9.80,-0.19,-0.71,-0.07,0.07,0.70,-0.88,1.75,-0.37
18,44,1,155090,0.14,-9.78,-0.40,0.17,0.01,-0.08,-0.02,-9.80,-0.31,-0.72,-0.07,0.07,0.69,0.31,3.87,-0.62
18,44,1,674090,-0.12,-9.84,-0.41,-0.08,-0.04,-0.03,-0.03,-9.79,-0.38,-0.72,-0.07,0.07,0.69,1.62,-1.06,0.13
18,44,2,200090,-0.39,-9.81,-0.49,-0.26,-0.01,-0.08,-0.12,-9.79,-0.40,-0.72,-0.06,0.07,0.69,-0.88,-3.44,-0.19
18,44,2,717032,-0.22,-9.85,0.03,-0.11,-0.05,0.27,-0.10,-9.80,-0.23,-0.71,-0.06,0.07,0.70,2.12,-2.44,-1.81
18,44,3,238092,-0.06,-9.82,-0.43,0.07,-0.02,-0.17,-0.13,-9.80,-0.25,-0.71,-0.06,0.07,0.69,0.50,0.31,2.69
18,44,3,757093,-0.59,-9.79,-0.65,-0.36,0.00,-0.34,-0.23,-9.79,-0.31,-0.72,-0.03,0.05,0.69,1.50,12.88,-2.56
18,44,4,276092,0.00,-9.68,-0.48,0.20,0.11,-0.21,-0.21,-9.80,-0.26,-0.72,-0.01,0.03,0.70,-2.62,4.56,-0.81
18,44,4,800093,-0.39,-9.85,-0.27,-0.14,-0.05,0.04,-0.24,-9.79,-0.31,-0.72,0.00,0.02,0.70,-0.13,-2.69,-0.94
18,44,5,321093,-0.06,-9.74,-0.21,0.13,0.05,0.09,-0.20,-9.79,-0.30,-0.72,0.00,0.01,0.70,0.31,-1.94,-0.37
18,44,5,839093,-0.20,-9.79,-0.20,-0.02,0.00,0.07,-0.17,-9.80,-0.27,-0.72,-0.00,0.02,0.70,-0.50,0.19,-0.31
18,44,6,356093,0.01,-9.79,-0.14,0.14,0.00,0.10,-0.12,-9.80,-0.24,-0.72,-0.00,0.01,0.70,1.19,4.19,0.69
18,44,6,877093,-0.07,-9.79,0.03,0.10,0.01,0.18,-0.17,-9.80,-0.14,-0.71,-0.00,0.01,0.70,-0.37,-4.50,0.50
18,44,7,396095,-0.40,-9.81,-0.33,-0.20,-0.01,-0.04,-0.20,-9.80,-0.29,-0.72,-0.00,0.02,0.70,-2.00,-3.56,0.75
18,44,7,915093,-0.15,-9.70,-0.08,0.06,0.09,0.17,-0.22,-9.80,-0.26,-0.72,-0.00,0.02,0.70,1.50,2.69,-0.94
18,44,8,434090,-0.10,-9.78,-0.31,0.10,0.01,-0.01,-0.20,-9.79,-0.29,-0.72,-0.00,0.02,0.70,0.13,-1.62,-0.69
18,44,8,952091,-0.30,-9.78,0.03,-0.06,0.00,0.16,-0.20,-9.80,-0.16,-0.71,-0.00,0.02,0.70,0.44,-4.25,0.06
18,44,9,470091,-0.18,-9.79,-0.21,0.02,0.00,0.06,-0.21,-9.80,-0.28,-0.72,-0.00,0.02,0.70,-1.19,1.94,0.00
18,44,9,989094,-0.15,-9.78,-0.57,0.06,0.00,-0.11,-0.21,-9.79,-0.46,-0.72,-0.00,0.02,0.69,-2.06,4.37,-0.13
18,44,10,506089,-0.54,-9.85,-0.08,-0.33,-0.05,0.35,-0.20,-9.79,-0.43,-0.72,-0.00,0.02,0.69,2.69,1.19,-1.44
18,44,11,35090,-0.38,-9.81,-0.57,-0.19,-0.01,-0.14,-0.18,-9.79,-0.42,-0.72,-0.00,0.02,0.69,0.06,-11.88,0.13
18,44,11,548803,-0.06,-9.80,-0.26,0.12,0.00,0.11,-0.19,-9.79,-0.37,-0.72,-0.00,0.01,0.69,-0.06,-5.06,0.37
18,44,12,90063,0.19,-9.59,-0.27,0.39,0.20,0.05,-0.20,-9.79,-0.33,-0.72,-0.00,0.02,0.69,0.81,3.19,0.00
18,44,12,608085,-0.19,-9.81,-0.21,-0.02,-0.07,0.09,-0.20,-9.80,-0.29,-0.72,-0.00,0.02,0.70,-0.88,1.31,0.00
18,44,13,126062,-0.15,-9.80,-0.41,0.04,0.00,-0.01,-0.19,-9.79,-0.39,-0.72,-0.00,0.02,0.69,-2.37,0.69,0.25
18,44,13,647065,-0.15,-9.79,-0.63,0.05,0.00,-0.13,-0.20,-9.79,-0.49,-0.72,-0.00,0.02,0.69,0.50,-3.94,-0.25
18,44,14,165067,-0.29,-9.78,-0.34,-0.07,-0.01,0.06,-0.20,-9.79,-0.45,-0.72,-0.01,0.02,0.69,-0.88,-3.25,-0.13
18,44,14,685063,-0.13,-9.80,-0.62,0.07,-0.01,-0.09,-0.21,-9.79,-0.52,-0.73,-0.01,0.02,0.69,1.19,-3.00,-0.13
18,44,15,208073,-0.23,-9.78,-0.34,-0.02,0.00,0.10,-0.21,-9.79,-0.44,-0.72,-0.01,0.02,0.69,-1.56,-0.31,0.00
18,44,15,727089,-0.27,-9.79,-0.48,-0.06,0.00,0.01,-0.21,-9.79,-0.49,-0.72,-0.01,0.02,0.69,1.75,-5.75,-0.25
18,44,16,248093,0.16,-9.77,-0.17,0.37,0.01,0.15,-0.21,-9.79,-0.33,-0.72,-0.01,0.02,0.69,-0.75,3.62,0.56
18,44,16,770092,-0.15,-9.80,-0.29,0.06,0.00,0.04,-0.22,-9.79,-0.34,-0.72,-0.01,0.02,0.69,0.19,1.12,0.00
18,44,17,295090,-0.24,-9.80,-0.25,-0.02,0.00,0.06,-0.22,-9.79,-0.31,-0.72,-0.01,0.02,0.70,0.69,1.44,-0.06
18,44,17,816095,-0.13,-9.77,-0.17,0.08,0.02,0.07,-0.22,-9.80,-0.25,-0.72,-0.01,0.02,0.70,0.88,-1.50,0.00
18,44,18,335089,-0.12,-9.79,-0.14,0.09,0.00,0.06,-0.22,-9.80,-0.20,-0.71,-0.01,0.02,0.70,-1.31,0.88,-0.13
18,44,18,854076,-0.13,-9.81,-0.17,0.05,-0.02,0.08,-0.21,-9.80,-0.22,-0.72,-0.01,0.02,0.70,-0.19,3.62,0.44
18,44,19,374090,-0.23,-9.79,-0.14,0.00,0.00,0.17,-0.23,-9.79,-0.31,-0.72,-0.01,0.02,0.70,-0.94,0.62,-0.50
18,44,19,897090,-0.32,-9.76,-0.39,-0.10,0.02,0.00,-0.21,-9.79,-0.40,-0.72,-0.01,0.02,0.69,0.75,-1.69,0.13
18,44,20,417090,-0.12,-9.77,-0.26,0.09,0.02,0.03,-0.21,-9.79,-0.29,-0.72,-0.01,0.02,0.70,1.94,-2.69,-0.13
18,44,20,938039,-0.13,-9.79,-0.03,0.08,0.00,0.14,-0.21,-9.80,-0.17,-0.71,-0.01,0.02,0.70,-0.06,-0.13,0.19
18,44,21,459105,-0.27,-9.80,-0.25,-0.03,0.00,-0.09,-0.23,-9.80,-0.16,-0.71,-0.01,0.02,0.70,1.87,4.44,2.06
18,44,21,981121,-0.09,-9.80,-0.01,0.14,0.00,0.06,-0.23,-9.80,-0.07,-0.71,-0.01,0.02,0.70,-0.44,-0.19,0.25
18,44,22,505090,-0.50,-9.78,-0.05,-0.26,0.01,0.15,-0.23,-9.80,-0.21,-0.71,-0.01,0.02,0.70,-1.06,-0.56,0.50
18,44,23,32090,0.11,-9.72,-0.28,0.35,0.07,0.01,-0.23,-9.79,-0.30,-0.72,-0.01,0.02,0.70,0.44,3.50,-0.88
18,44,23,555089,-0.29,-9.79,-0.37,-0.07,-0.01,0.00,-0.24,-9.79,-0.34,-0.72,-0.01,0.03,0.69,-0.50,-0.06,0.00
18,44,24,75092,-0.22,-9.81,-0.36,0.01,-0.02,0.00,-0.24,-9.79,-0.35,-0.72,-0.01,0.03,0.69,-0.13,-1.56,-0.13
18,44,24,599091,-0.16,-9.81,-0.22,0.10,0.00,0.14,-0.24,-9.79,-0.32,-0.72,-0.01,0.03,0.69,0.69,0.00,-0.13
18,44,25,119093,0.00,0.00,0.00,0.00,0.00,0.00,0.00,0.00,0.00,-0.72,-0.01,0.03,0.70,1.00,-2.56,-0.44
18,44,25,686090,-0.40,-9.87,-0.20,-0.15,-0.07,0.04,-0.25,-9.79,-0.25,-0.72,-0.01,0.03,0.70,-2.00,3.19,-0.69
18,44,26,209093,-0.35,-9.79,-0.43,-0.10,0.00,0.00,-0.25,-9.79,-0.43,-0.72,-0.02,0.03,0.69,-0.56,-5.56,0.13
18,44,26,730095,-0.15,-9.80,-0.44,0.10,-0.02,-0.09,-0.25,-9.79,-0.35,-0.72,-0.01,0.03,0.69,-0.13,-3.50,0.31
18,44,27,252092,-0.09,-9.88,-0.05,0.24,-0.04,0.24,-0.23,-9.79,-0.30,-0.72,-0.01,0.03,0.70,-0.62,3.25,-0.50
18,44,27,771093,-0.19,-9.98,-0.49,0.07,-0.19,0.00,-0.27,-9.78,-0.50,-0.72,-0.02,0.04,0.69,-2.37,9.06,0.37
18,44,28,289092,-0.24,-9.85,-0.43,0.03,-0.06,0.06,-0.28,-9.78,-0.49,-0.72,-0.02,0.04,0.69,-0.06,8.44,-0.06
18,44,28,808091,-0.38,-9.74,-0.60,-0.08,0.01,-0.09,-0.27,-9.78,-0.56,-0.73,-0.02,0.04,0.69,0.25,-3.12,-0.19
18,44,29,327090,-0.36,-9.76,-0.62,-0.02,0.01,0.00,-0.34,-9.78,-0.62,-0.73,-0.04,0.06,0.68,-1.62,-13.31,0.62
18,44,29,849090,0.44,-9.48,0.46,1.00,0.30,0.80,-0.56,-9.78,-0.34,-0.72,-0.07,0.11,0.69,3.56,0.31,-2.37
18,44,30,370032,-0.85,-9.80,-0.58,-0.35,-0.01,-0.15,-0.50,-9.78,-0.43,-0.72,-0.07,0.10,0.68,-1.25,-7.00,3.19
18,44,30,889090,-0.59,-9.66,-0.38,0.08,0.01,0.19,-0.67,-9.75,-0.71,-0.73,-0.10,0.14,0.67,-11.69,-26.69,1.87
18,44,31,408092,-0.16,-9.92,-0.53,0.39,-0.17,0.33,-0.53,-9.75,-0.85,-0.73,-0.11,0.14,0.66,4.94,26.00,-4.81
18,44,31,928093,-0.61,-9.71,-0.86,-0.13,0.02,0.12,-0.48,-9.74,-0.99,-0.74,-0.10,0.12,0.66,-7.31,4.62,1.81
18,44,32,452093,-0.54,-9.70,-0.81,0.04,0.00,0.38,-0.58,-9.71,-1.19,-0.74,-0.11,0.14,0.65,2.75,-0.56,0.19
18,44,32,973095,-0.02,-9.66,-1.93,0.41,0.04,-0.60,-0.44,-9.70,-1.33,-0.75,-0.11,0.12,0.65,4.44,3.19,-0.13
18,44,33,495093,-0.67,-9.71,-0.69,-0.20,0.02,0.38,-0.46,-9.73,-1.07,-0.74,-0.10,0.13,0.66,-1.19,0.69,-3.69
18,44,34,14093,0.22,-9.90,-0.93,0.23,-0.14,0.03,0.00,-9.75,-0.96,-0.74,-0.08,0.08,0.67,1.75,-10.50,1.37
18,44,34,535095,-0.54,-9.84,-0.83,-0.27,-0.06,-0.13,-0.26,-9.77,-0.70,-0.73,-0.06,0.08,0.68,4.50,9.31,2.12
18,44,35,54094,0.43,-9.22,-0.35,0.25,0.57,-0.08,0.17,-9.80,-0.26,-0.71,-0.09,0.07,0.69,1.00,-85.81,-10.81
18,44,35,575095,2.79,-8.11,-1.09,-0.52,1.02,0.17,3.31,-9.14,-1.27,-0.72,-0.21,-0.05,0.66,-19.44,54.56,-47.13
18,44,36,95093,7.27,-6.63,0.43,0.10,0.04,0.06,7.17,-6.67,0.37,-0.67,-0.18,-0.38,0.61,-13.56,62.06,-61.06
18,44,36,613093,8.18,-5.46,1.19,-0.07,-1.53,0.28,8.71,-4.41,0.91,-0.64,-0.21,-0.52,0.52,-25.00,18.75,-20.81
18,44,37,131095,9.62,-1.81,3.29,0.37,0.02,0.60,9.24,-1.84,2.68,-0.55,-0.23,-0.67,0.44,2.62,33.31,-34.38
18,44,37,656093,7.69,1.22,5.18,-0.69,-0.15,0.28,8.38,1.38,4.90,-0.41,-0.28,-0.79,0.36,7.81,31.37,-49.00
18,44,38,174091,7.01,4.51,3.04,-0.42,-0.79,-0.51,7.43,5.30,3.55,-0.38,-0.42,-0.81,0.18,10.94,5.56,-49.63
18,44,38,695092,5.57,5.37,1.91,-0.60,-1.68,-0.92,6.18,7.06,2.84,-0.34,-0.49,-0.80,0.09,-3.69,16.87,2.31
18,44,39,215091,7.66,5.45,2.49,0.25,-0.66,0.03,7.43,5.94,2.35,-0.38,-0.49,-0.76,0.19,14.69,-4.94,39.81
18,44,39,735040,8.87,3.58,2.04,0.09,0.01,-0.45,8.78,3.56,2.50,-0.43,-0.44,-0.73,0.32,4.25,42.56,20.75
18,44,40,263093,8.99,2.61,-0.18,-0.36,-0.28,-0.62,9.35,2.90,0.43,-0.69,0.09,-0.66,-0.30,-2.06,41.00,4.31
18,44,40,782095,9.55,1.87,0.18,0.50,-0.08,-0.13,9.55,2.12,0.63,-0.67,0.13,-0.67,-0.29,2.00,30.56,8.25
18,44,41,302088,9.82,2.45,-2.08,0.44,-0.05,-0.68,9.35,2.54,-1.48,-0.75,0.10,-0.60,-0.26,6.31,-55.44,-20.62
18,44,41,822093,10.02,2.78,-1.46,0.50,0.62,-0.58,9.52,2.15,-0.87,-0.73,0.11,-0.63,-0.24,-6.37,-27.44,-22.75
18,44,42,346093,9.36,2.09,-1.01,-0.11,-0.17,0.10,9.48,2.26,-1.07,-0.73,0.12,-0.61,-0.26,-8.00,21.81,2.25
18,44,42,866093,9.09,1.33,-0.67,-0.49,-0.51,0.11,9.59,1.85,-0.78,-0.72,0.13,-0.63,-0.25,-7.06,9.13,-1.81
18,44,43,387093,9.37,1.77,-0.91,-0.19,-0.19,-0.07,9.56,1.97,-0.84,-0.73,0.13,-0.63,-0.25,-0.75,4.44,-4.12
18,44,43,905091,9.65,1.59,-1.12,0.06,-0.32,-0.12,9.55,1.95,-1.00,-0.73,0.13,-0.62,-0.24,1.44,6.31,-2.06
18,44,44,423091,9.47,2.07,-1.03,-0.08,0.11,-0.07,9.56,1.95,-0.95,-0.73,0.12,-0.63,-0.24,2.12,6.31,-0.94
18,44,44,951091,0.00,0.00,0.00,0.00,0.00,0.00,0.00,0.00,0.00,0.00,0.00,0.00,0.00,0.37,-1.94,5.94
18,44,45,539091,9.64,1.03,-1.23,0.01,-0.36,-0.06,9.63,1.40,-1.16,-0.74,0.14,-0.63,-0.21,4.31,-0.62,2.12
18,44,46,58093,9.56,1.18,-1.18,-0.10,-0.07,-0.12,9.66,1.26,-1.06,-0.73,0.13,-0.64,-0.20,-1.06,1.69,1.06
18,44,46,579092,9.76,0.99,-1.06,0.08,-0.19,-0.01,9.67,1.19,-1.05,-0.73,0.14,-0.64,-0.21,-0.06,-9.75,0.31
18,44,47,100090,9.71,1.17,-1.16,0.04,0.03,0.00,9.66,1.14,-1.16,-0.73,0.15,-0.63,-0.21,-0.56,1.06,2.31
18,44,47,620091,9.60,1.12,-0.85,-0.17,0.01,0.00,9.70,1.10,-0.88,-0.72,0.15,-0.64,-0.21,0.44,4.81,1.31
18,44,48,140090,9.76,1.21,-1.44,0.09,0.15,-0.22,9.67,1.04,-1.22,-0.73,0.16,-0.63,-0.21,4.62,-4.69,3.87
18,44,48,661088,9.76,0.58,-1.38,0.08,-0.13,0.01,9.67,0.72,-1.39,-0.74,0.18,-0.62,-0.20,1.44,-1.12,-0.56
18,44,49,184083,10.05,0.65,-1.39,0.37,0.01,0.04,9.67,0.64,-1.43,-0.74,0.18,-0.62,-0.20,-0.13,-0.31,1.31
18,44,49,705093,9.61,0.84,-1.24,-0.06,-0.07,0.03,9.68,0.91,-1.27,-0.73,0.17,-0.63,-0.21,-3.50,3.75,1.44
18,44,50,224044,9.91,0.89,-1.10,0.21,0.03,0.00,9.70,0.86,-1.11,-0.72,0.18,-0.63,-0.22,-2.00,0.44,-0.31
18,44,50,745095,9.73,0.90,-1.06,0.03,-0.05,0.01,9.69,0.95,-1.08,-0.72,0.18,-0.63,-0.23,-2.00,-1.19,2.37
18,44,51,264087,10.26,1.17,-1.73,0.57,0.17,-0.61,9.69,1.00,-1.11,-0.72,0.19,-0.62,-0.23,3.37,-3.50,4.06
18,44,51,783092,9.49,0.90,-0.78,-0.22,-0.04,0.17,9.71,0.95,-0.96,-0.72,0.17,-0.63,-0.22,1.94,4.44,-1.50
18,44,52,303091,9.73,0.78,-1.06,0.03,-0.05,0.06,9.70,0.84,-1.13,-0.73,0.18,-0.63,-0.21,-0.44,0.88,4.44
18,44,52,828092,9.79,0.41,-1.18,0.07,-0.11,0.00,9.71,0.53,-1.19,-0.73,0.19,-0.63,-0.20,2.75,-0.31,2.19
18,44,53,347092,9.75,0.62,-1.12,0.02,0.01,-0.02,9.72,0.60,-1.09,-0.72,0.18,-0.63,-0.20,-2.06,4.25,-2.62
18,44,53,868088,10.08,0.46,-1.19,0.31,0.06,-0.11,9.73,0.44,-1.12,-0.72,0.19,-0.63,-0.20,1.31,1.75,-0.19
18,44,54,388092,9.65,0.38,-1.05,-0.08,0.00,0.00,9.74,0.38,-1.04,-0.72,0.19,-0.64,-0.20,-2.06,1.06,0.25
18,44,54,908089,9.75,0.52,-1.08,0.00,0.27,-0.02,9.74,0.24,-1.06,-0.72,0.20,-0.64,-0.19,0.37,4.81,-1.19
18,44,55,432091,9.76,0.50,-0.83,0.00,0.09,0.06,9.75,0.40,-0.89,-0.71,0.20,-0.64,-0.21,0.13,0.69,2.31
18,44,55,952089,9.94,0.35,-0.96,0.19,0.01,0.08,9.74,0.33,-1.05,-0.72,0.19,-0.64,-0.19,4.50,-0.06,-1.87
18,44,56,475087,9.66,0.77,-1.17,-0.06,0.22,-0.08,9.72,0.55,-1.09,-0.72,0.18,-0.64,-0.20,0.81,-9.44,1.69
18,44,56,997093,9.61,0.69,-1.31,-0.09,0.14,-0.08,9.71,0.54,-1.23,-0.73,0.18,-0.63,-0.20,0.69,-2.50,-1.50
18,44,57,516093,9.43,0.00,-1.48,-0.23,-0.57,0.00,9.67,0.57,-1.48,-0.74,0.19,-0.62,-0.20,-1.12,3.50,0.19
18,44,58,40093,9.89,0.72,-0.97,0.17,0.06,0.11,9.72,0.66,-1.09,-0.73,0.16,-0.64,-0.18,6.75,5.19,-1.44
18,44,58,558094,9.50,0.54,-1.04,-0.18,0.00,0.01,9.73,0.55,-1.06,-0.73,0.16,-0.64,-0.18,-3.37,-1.62,2.62
18,44,59,76090,9.74,0.29,-1.14,0.00,-0.14,-0.04,9.73,0.44,-1.09,-0.73,0.17,-0.64,-0.18,0.00,4.75,-3.56
18,44,59,596033,9.78,0.16,-1.13,0.07,-0.38,0.12,9.71,0.55,-1.25,-0.73,0.17,-0.63,-0.19,-8.00,3.69,5.75
18,45,0,115093,9.84,0.54,-1.37,0.27,0.04,0.16,9.67,0.50,-1.51,-0.74,0.19,-0.62,-0.19,-2.12,-4.87,1.19
18,45,0,637090,9.60,0.53,-0.79,-0.09,-0.03,0.14,9.74,0.59,-0.91,-0.72,0.18,-0.64,-0.20,-4.31,-4.94,4.19
18,45,1,156092,10.12,0.63,-0.93,0.36,0.16,-0.05,9.75,0.47,-0.88,-0.71,0.19,-0.64,-0.20,-3.75,1.19,2.56
18,45,1,675093,10.14,0.68,-0.95,0.40,0.42,0.15,9.74,0.26,-1.10,-0.72,0.20,-0.64,-0.20,-4.06,-7.81,5.44
18,45,2,197090,9.70,-0.04,-0.88,-0.01,-0.13,0.37,9.72,0.08,-1.26,-0.72,0.21,-0.63,-0.19,0.31,11.50,-2.75
18,45,2,719093,9.91,-0.02,-0.52,0.15,-0.89,-0.06,9.75,0.86,-0.46,-0.70,0.18,-0.65,-0.23,-13.56,1.19,-4.37
18,45,3,250093,9.58,1.90,0.24,0.02,-0.26,0.06,9.56,2.16,0.17,-0.69,0.13,-0.65,-0.29,-8.75,8.19,-12.88
18,45,3,771086,9.23,3.21,-0.03,-0.20,0.59,-0.41,9.44,2.60,0.36,-0.68,0.13,-0.64,-0.32,-9.81,-12.25,11.50
18,45,4,290093,9.68,1.85,-0.23,0.06,0.00,-0.05,9.62,1.85,-0.17,-0.69,0.17,-0.64,-0.29,0.31,10.00,-0.88
18,45,4,813093,9.44,1.64,-0.12,-0.22,0.03,0.11,9.67,1.60,-0.22,-0.69,0.18,-0.64,-0.28,-0.06,4.44,0.37
18,45,5,333091,9.77,1.71,0.10,0.09,0.14,0.26,9.67,1.56,-0.15,-0.69,0.18,-0.64,-0.28,-0.56,4.87,2.44
18,45,5,853091,9.70,1.88,-0.06,0.03,0.29,0.00,9.67,1.58,-0.06,-0.69,0.18,-0.65,-0.28,5.87,6.19,0.25
18,45,6,373093,9.58,1.56,-0.15,-0.05,0.10,-0.03,9.69,1.46,-0.21,-0.69,0.17,-0.65,-0.26,3.19,-0.44,-1.00
18,45,6,891093,9.45,1.07,-0.12,-0.25,-0.19,0.37,9.71,1.26,-0.50,-0.70,0.17,-0.64,-0.25,0.37,-8.50,3.25
18,45,7,409093,9.49,1.31,-0.63,-0.17,-0.07,0.20,9.67,1.38,-0.83,-0.72,0.16,-0.63,-0.24,6.69,-2.44,1.06
18,45,7,933090,9.64,1.12,-0.97,-0.03,-0.10,0.02,9.67,1.23,-1.00,-0.73,0.16,-0.63,-0.22,3.62,-2.37,1.44
18,45,8,452090,9.91,0.91,-1.06,0.17,0.13,0.05,9.71,0.79,-1.12,-0.73,0.16,-0.64,-0.20,3.12,-0.62,2.94
18,45,8,974092,9.91,1.46,-0.43,0.19,0.05,0.08,9.69,1.38,-0.50,-0.71,0.14,-0.65,-0.23,-2.87,-0.62,-9.06
18,45,9,487632,9.85,1.22,-0.71,0.16,-0.10,0.03,9.68,1.32,-0.75,-0.72,0.14,-0.64,-0.22,-3.81,-3.87,4.87
18,45,10,14093,9.49,1.81,-0.24,-0.13,0.00,0.14,9.62,1.82,-0.38,-0.71,0.13,-0.64,-0.25,-4.94,-0.75,-5.69
18,45,10,536093,9.19,1.76,-0.83,-0.25,-0.70,0.08,9.44,2.46,-0.92,-0.73,0.13,-0.61,-0.28,3.62,-12.75,-2.37
18,45,11,59092,9.19,2.29,-0.69,-0.30,0.03,0.19,9.49,2.26,-0.88,-0.73,0.13,-0.62,-0.27,-2.44,9.13,4.87
18,45,11,577089,9.64,1.95,-0.29,0.06,-0.10,0.10,9.58,2.05,-0.39,-0.71,0.14,-0.64,-0.27,0.62,-0.50,5.50
18,45,12,96093,9.74,1.74,-0.33,0.09,0.01,-0.13,9.65,1.72,-0.20,-0.70,0.14,-0.65,-0.26,-1.12,0.31,4.87
18,45,12,616094,9.71,1.54,0.19,0.04,-0.08,0.12,9.67,1.62,0.06,-0.69,0.16,-0.65,-0.28,-4.12,1.56,1.06
18,45,13,134092,9.49,1.74,0.16,-0.18,0.16,0.13,9.67,1.58,0.02,-0.69,0.16,-0.65,-0.27,0.50,-0.25,3.56
18,45,13,659093,9.33,1.80,-0.45,-0.33,0.23,-0.33,9.67,1.57,-0.11,-0.69,0.17,-0.65,-0.27,-0.62,-1.75,0.62
18,45,14,176092,9.79,1.66,-0.36,0.14,0.00,0.14,9.65,1.66,-0.51,-0.71,0.17,-0.63,-0.27,1.56,-4.25,-2.25
18,45,14,694095,9.59,1.37,0.07,-0.04,-0.39,0.54,9.63,1.77,-0.46,-0.70,0.17,-0.63,-0.28,-0.88,6.56,-2.06
18,45,15,215087,9.72,1.73,-0.31,0.07,0.00,0.08,9.64,1.73,-0.39,-0.70,0.17,-0.63,-0.28,2.19,-4.00,0.00
18,45,15,733090,9.46,2.04,-0.30,-0.15,0.36,0.22,9.66,1.66,-0.26,-0.70,0.16,-0.64,-0.27,0.13,-1.00,-0.06
18,45,16,252095,9.63,1.21,0.03,-0.06,-0.25,0.06,9.69,1.46,-0.03,-0.69,0.17,-0.65,-0.27,5.62,-2.69,-4.00
18,45,16,772091,9.49,1.49,0.10,-0.20,0.03,0.09,9.69,1.45,0.00,-0.69,0.16,-0.66,-0.26,-0.94,5.69,-3.06
18,45,17,290092,9.30,1.83,-0.38,-0.03,0.27,0.26,9.61,1.81,-0.61,-0.71,0.15,-0.63,-0.26,-0.06,-29.81,-0.88
18,45,17,807090,9.60,2.20,-1.19,0.10,0.11,0.05,9.49,2.08,-1.25,-0.74,0.15,-0.60,-0.27,-2.12,3.44,-5.69
18,45,18,326595,9.33,2.42,-1.01,-0.11,-0.07,-0.23,9.45,2.49,-0.77,-0.72,0.13,-0.62,-0.29,0.88,11.56,-4.94
18,45,18,854093,9.21,2.25,-0.39,-0.30,0.01,0.30,9.51,2.25,-0.68,-0.72,0.13,-0.62,-0.27,2.19,7.37,-3.94
18,45,19,375093,9.46,2.51,-0.63,0.04,-0.13,0.05,9.41,2.65,-0.69,-0.72,0.11,-0.62,-0.28,3.87,4.31,-0.44
18,45,19,899093,9.56,2.72,-0.71,0.14,0.11,0.03,9.42,2.61,-0.74,-0.73,0.10,-0.62,-0.27,4.06,1.31,0.75
18,45,20,417093,9.50,2.66,-0.65,0.08,0.01,0.01,9.41,2.64,-0.67,-0.72,0.10,-0.63,-0.27,-2.00,3.75,3.94
18,45,20,938093,8.92,2.63,-0.62,-0.41,-0.25,0.16,9.33,2.88,-0.78,-0.73,0.10,-0.61,-0.29,0.56,1.81,-5.25
18,45,21,459093,9.19,3.45,-0.47,-0.08,0.37,0.21,9.28,3.08,-0.68,-0.73,0.09,-0.62,-0.29,2.37,15.38,1.19
18,45,21,984093,8.96,2.21,0.13,-0.43,-0.56,0.64,9.39,2.77,-0.50,-0.72,0.10,-0.63,-0.28,-3.69,-3.12,0.56
18,45,22,505095,9.45,2.21,-0.41,-0.10,0.09,0.12,9.56,2.11,-0.53,-0.72,0.12,-0.64,-0.26,-1.94,0.81,8.75
18,45,23,23093,9.56,-0.01,-0.01,0.00,0.00,0.00,0.00,0.00,0.00,0.00,0.00,0.00,0.00,0.00,0.00,0.00
18,45,23,609067,9.71,2.36,-0.53,0.19,0.02,-0.11,9.51,2.34,-0.41,-0.71,0.13,-0.63,-0.28,-3.31,5.37,5.87
18,45,24,134067,9.75,2.19,-0.57,0.17,0.15,-0.06,9.57,2.04,-0.51,-0.71,0.14,-0.63,-0.27,-2.31,-2.25,4.94
18,45,24,655092,9.60,2.07,-0.30,0.06,-0.16,0.02,9.54,2.23,-0.33,-0.71,0.13,-0.64,-0.28,2.37,7.62,1.87
18,45,25,173091,9.31,2.26,-0.40,-0.23,0.09,0.12,9.54,2.17,-0.53,-0.71,0.13,-0.63,-0.27,1.19,-5.12,-2.56
18,45,25,691092,9.67,2.32,-0.26,0.13,0.08,-0.01,9.54,2.23,-0.24,-0.71,0.12,-0.64,-0.27,3.00,-6.50,-1.44
18,45,26,215089,9.39,2.49,-0.50,-0.02,-0.25,-0.31,9.41,2.74,-0.19,-0.71,0.09,-0.64,-0.28,-5.62,14.94,-5.44
18,45,26,735076,9.41,3.69,0.08,0.04,0.77,0.08,9.36,2.92,0.00,-0.70,0.08,-0.65,-0.28,-5.37,4.19,-2.62
18,45,27,257092,9.41,2.87,0.36,0.00,0.11,0.19,9.40,2.75,0.17,-0.70,0.09,-0.65,-0.29,3.69,-0.19,1.62
18,45,27,777090,10.27,2.94,0.22,0.82,0.33,-0.06,9.44,2.61,0.28,-0.69,0.10,-0.66,-0.28,8.31,-16.37,-2.19
18,45,28,295092,9.63,2.52,0.10,0.13,0.08,0.26,9.49,2.44,-0.13,-0.71,0.08,-0.65,-0.25,1.25,9.81,-2.56
18,45,28,813545,9.36,2.22,-0.36,-0.20,-0.58,-0.14,9.35,2.94,-0.22,-0.71,0.06,-0.65,-0.26,8.38,-4.06,-1.56
18,45,29,341091,9.52,1.73,0.11,0.01,-0.66,-0.03,9.51,2.38,0.11,-0.70,0.07,-0.67,-0.24,3.50,-19.94,7.81
18,45,29,861089,9.50,2.06,-0.59,-0.10,0.21,0.02,9.61,1.82,-0.64,-0.73,0.08,-0.65,-0.20,-3.56,-17.25,10.94
18,45,30,382090,8.75,1.51,3.51,-0.35,-0.27,0.37,9.11,1.78,3.14,-0.58,0.09,-0.77,-0.27,-19.62,31.44,2.87
18,45,30,901090,8.82,2.86,4.75,0.69,0.17,-0.02,8.12,2.69,4.78,-0.50,0.06,-0.78,-0.37,-28.44,34.25,-22.13
18,45,31,424091,6.32,2.26,6.90,-0.51,-0.21,0.33,6.84,2.47,6.57,-0.40,0.05,-0.81,-0.41,8.88,12.44,5.19
18,45,31,949091,6.43,2.69,6.51,-0.02,-0.26,-0.23,6.46,2.96,6.75,-0.39,0.02,-0.81,-0.43,-0.62,-7.00,-11.38
18,45,32,468093,7.01,3.08,6.76,0.08,0.26,0.42,6.92,2.82,6.33,-0.42,0.04,-0.80,-0.42,-4.12,12.69,1.44
18,45,32,989091,6.32,2.25,6.34,-0.84,-0.02,0.05,7.16,2.28,6.29,-0.42,0.07,-0.81,-0.41,-0.06,7.37,-0.69
18,45,33,508092,7.57,2.39,5.46,0.20,-0.58,-0.27,7.37,2.98,5.73,-0.45,0.06,-0.77,-0.44,-9.38,-17.81,-9.38
18,45,34,27091,5.60,2.85,7.39,-0.87,-0.01,0.61,6.47,2.87,6.77,-0.39,0.04,-0.80,-0.46,-15.06,14.63,-6.69
18,45,34,555092,5.89,1.35,7.26,-0.32,-0.65,0.03,6.21,2.08,7.29,-0.35,0.09,-0.78,-0.51,-0.31,9.19,-0.25
18,45,35,74094,5.94,2.11,7.14,-0.23,-0.28,-0.07,6.18,2.40,7.21,-0.35,0.08,-0.77,-0.52,0.69,-2.00,0.25
18,45,35,599090,6.13,2.10,7.06,-0.08,-0.28,-0.14,6.20,2.40,7.20,-0.35,0.08,-0.77,-0.53,-2.62,-0.31,-4.50
18,45,36,117090,5.77,2.60,7.09,-0.33,-0.02,-0.11,6.10,2.62,7.21,-0.36,0.07,-0.76,-0.53,0.50,-3.94,-1.75
18,45,36,637094,6.16,2.86,6.89,0.19,0.02,-0.34,5.97,2.84,7.23,-0.36,0.07,-0.76,-0.55,-3.56,2.75,-4.19
18,45,37,158093,6.01,2.70,5.23,0.38,-0.18,-2.25,5.62,2.89,7.49,-0.34,0.05,-0.77,-0.54,7.19,-9.00,4.81
18,45,37,676091,5.54,2.91,7.86,0.06,-0.25,0.37,5.47,3.17,7.49,-0.34,0.02,-0.79,-0.51,-19.69,-16.25,-11.63
18,45,38,198092,5.80,2.04,7.74,-0.31,0.16,0.31,6.09,1.88,7.44,-0.33,0.10,-0.78,-0.52,20.12,22.06,21.44
18,45,38,719033,4.64,2.38,8.35,-0.22,0.21,0.12,4.86,2.16,8.23,-0.28,0.03,-0.82,-0.49,-9.88,-1.06,-11.25
18,45,39,240091,4.84,2.51,8.16,0.10,-0.39,0.08,4.73,2.91,8.07,-0.30,-0.00,-0.82,-0.50,-3.37,-13.62,-1.50
18,45,39,762089,5.62,2.30,7.60,0.06,-0.28,-0.04,5.56,2.58,7.65,-0.33,0.03,-0.81,-0.48,11.12,-7.69,-3.87
18,45,40,288093,5.32,3.15,7.83,0.09,-0.20,0.24,5.22,3.35,7.58,-0.34,-0.01,-0.81,-0.48,7.62,3.94,6.06
18,45,40,807091,4.13,3.73,7.91,-0.76,0.19,0.20,4.90,3.54,7.71,-0.32,-0.05,-0.83,-0.44,2.81,10.63,-0.13
18,45,41,329092,5.82,4.40,7.68,0.38,0.62,0.45,5.44,3.78,7.22,-0.36,-0.04,-0.83,-0.43,16.81,-16.62,4.31
18,45,41,851094,5.65,2.72,7.15,-0.05,-0.34,-0.20,5.70,3.06,7.36,-0.35,-0.02,-0.85,-0.40,5.00,-5.19,-2.94
18,45,42,373092,5.99,2.79,6.58,0.45,-0.19,-0.94,5.53,2.98,7.52,-0.34,0.00,-0.83,-0.44,-26.94,-20.25,15.88
18,45,42,895091,5.81,2.76,6.81,-0.18,-0.02,-0.42,5.99,2.79,7.24,-0.36,0.01,-0.84,-0.41,8.19,1.25,-13.88
18,45,43,414093,5.62,3.56,7.09,-0.30,0.02,0.13,5.93,3.53,6.96,-0.38,-0.02,-0.82,-0.42,4.62,-8.13,-7.31
18,45,43,932093,5.01,4.08,6.82,-0.65,-0.10,0.00,5.66,4.19,6.82,-0.39,-0.06,-0.81,-0.44,4.56,-1.19,-2.00
18,45,44,458093,5.33,4.13,6.46,-0.31,-0.10,-0.33,5.64,4.24,6.80,-0.39,-0.06,-0.81,-0.43,0.69,4.56,0.31
18,45,44,976093,5.62,4.15,6.62,-0.11,-0.03,-0.14,5.73,4.18,6.76,-0.39,-0.06,-0.81,-0.43,0.19,0.06,2.31
18,45,45,496090,5.49,4.41,6.65,-0.16,0.25,-0.18,5.66,4.16,6.84,-0.38,-0.06,-0.81,-0.43,-0.69,5.25,-0.13
18,45,46,13095,5.59,4.17,7.23,0.03,0.03,0.29,5.54,4.13,6.95,-0.38,-0.06,-0.82,-0.43,-0.06,13.06,5.06
18,45,46,531091,4.37,3.69,7.24,-0.31,0.13,-0.59,4.69,3.55,7.84,-0.31,-0.07,-0.86,-0.39,2.75,19.25,-2.94
18,45,47,56089,3.55,3.79,8.08,-0.30,-0.03,-0.07,3.85,3.83,8.16,-0.27,-0.10,-0.88,-0.39,3.69,11.75,0.00
18,45,47,574089,3.44,4.37,7.80,-0.04,0.04,-0.26,3.49,4.33,8.07,-0.27,-0.13,-0.86,-0.41,3.00,6.06,-6.87
18,45,48,95032,3.04,4.32,7.80,-0.22,-0.13,-0.29,3.26,4.46,8.09,-0.26,-0.14,-0.86,-0.41,0.75,4.94,0.25
18,45,48,617092,3.21,4.61,7.71,0.00,0.05,-0.34,3.21,4.55,8.06,-0.26,-0.14,-0.86,-0.42,1.56,-2.37,-4.31
18,45,49,138093,2.88,4.54,7.66,-0.17,-0.12,-0.39,3.06,4.66,8.06,-0.26,-0.15,-0.85,-0.43,-0.81,0.00,-2.62
18,45,49,667095,3.02,4.62,8.26,0.00,-0.02,0.18,3.03,4.65,8.07,-0.26,-0.15,-0.85,-0.43,-0.50,3.94,-4.50
18,45,50,186094,2.64,4.61,8.30,-0.21,-0.03,0.16,2.86,4.64,8.14,-0.25,-0.15,-0.85,-0.44,0.62,7.94,-7.00
18,45,50,708093,2.87,4.51,8.36,0.12,-0.18,0.21,2.75,4.69,8.15,-0.25,-0.15,-0.85,-0.45,-1.31,-1.37,-0.19
18,45,51,229093,2.98,4.42,8.48,0.11,-0.19,0.32,2.86,4.61,8.16,-0.25,-0.15,-0.85,-0.45,0.06,-2.37,-0.31
18,45,51,747094,0.00,0.00,0.00,0.00,0.00,0.00,0.00,0.00,0.00,-0.25,-0.14,-0.84,-0.45,-0.88,-14.00,0.06
18,45,52,315093,0.00,0.00,0.00,0.00,0.00,0.00,0.00,0.00,0.00,0.00,0.00,0.00,0.00,0.00,0.00,0.00
18,45,52,920090,2.41,4.73,8.09,-0.28,0.21,-0.18,2.69,4.51,8.27,-0.24,-0.14,-0.84,-0.46,-0.88,3.94,-0.31
18,45,53,441093,2.63,4.46,8.50,0.07,-0.17,0.25,2.56,4.64,8.25,-0.24,-0.15,-0.84,-0.47,3.44,-2.31,1.12
18,45,53,960091,2.70,4.82,8.15,-0.08,0.17,-0.02,2.78,4.64,8.17,-0.25,-0.15,-0.84,-0.45,0.00,-2.31,2.25
18,45,54,480090,2.65,4.70,8.09,-0.15,-0.02,0.03,2.82,4.70,8.12,-0.25,-0.15,-0.84,-0.45,4.25,-2.81,2.87
18,45,55,5094,2.71,4.80,8.05,0.04,-0.07,-0.02,2.67,4.87,8.07,-0.25,-0.16,-0.85,-0.44,0.88,-3.12,-1.25
18,45,55,524093,2.67,4.72,8.04,-0.05,-0.08,-0.05,2.73,4.87,8.06,-0.25,-0.16,-0.84,-0.44,0.25,2.94,-0.37
18,45,56,43094,2.59,4.84,8.05,-0.03,-0.09,0.00,2.63,4.94,8.05,-0.25,-0.17,-0.85,-0.44,0.75,5.25,-1.81
18,45,56,562095,2.54,3.87,7.80,-0.27,-0.98,-0.23,2.82,4.86,8.03,-0.26,-0.16,-0.84,-0.45,-2.37,-2.06,-1.81
18,45,57,84093,2.25,3.70,8.02,-0.64,-1.06,-0.03,2.89,4.77,8.06,-0.26,-0.15,-0.84,-0.45,-4.87,15.56,-10.56
18,45,57,608174,2.97,4.64,8.19,-0.07,-0.19,0.22,3.04,4.83,7.96,-0.27,-0.15,-0.84,-0.45,-3.19,-6.00,-1.00
18,45,58,127090,4.98,4.58,6.81,0.22,0.08,-0.48,4.76,4.49,7.29,-0.35,-0.09,-0.82,-0.45,-3.06,-57.69,7.31
18,45,58,649093,5.80,4.51,6.61,-0.01,0.29,-0.05,5.81,4.22,6.66,-0.40,-0.05,-0.80,-0.45,1.87,-7.69,-0.44
18,45,59,166092,5.57,4.40,6.62,-0.34,0.09,0.09,5.91,4.30,6.52,-0.41,-0.05,-0.80,-0.45,1.19,-1.37,-0.88
18,45,59,688090,5.71,4.20,6.34,-0.19,-0.17,-0.13,5.91,4.37,6.48,-0.41,-0.05,-0.80,-0.44,-0.56,-0.88,0.31
18,46,0,211033,6.00,4.56,6.65,0.36,0.11,-0.02,5.64,4.44,6.67,-0.39,-0.07,-0.80,-0.44,2.62,30.19,-0.81
18,46,0,729093,3.74,4.72,7.82,0.45,-0.02,-0.09,3.28,4.75,7.92,-0.27,-0.15,-0.85,-0.43,0.75,34.00,-1.75
18,46,1,249093,2.43,5.03,7.91,-0.26,0.18,-0.23,2.38,4.86,8.17,-0.23,-0.18,-0.86,-0.41,-0.75,5.62,0.69
18,46,1,768092,2.21,4.76,7.89,0.06,0.00,-0.40,2.15,4.76,8.29,-0.21,-0.18,-0.87,-0.41,-3.06,-2.25,6.50
18,46,2,286090,1.80,4.94,8.73,-0.03,0.27,0.30,1.83,4.66,8.43,-0.20,-0.18,-0.86,-0.44,-4.69,12.81,-6.00
18,46,2,807090,1.24,4.53,8.37,-0.08,0.00,-0.21,1.32,4.53,8.59,-0.17,-0.18,-0.86,-0.45,-2.31,4.62,-3.56
18,46,3,329093,0.00,0.00,0.00,0.00,0.00,0.00,1.25,4.54,8.59,-0.17,-0.18,-0.85,-0.46,-0.06,0.19,-1.81
18,46,3,876093,1.28,4.61,8.59,-0.01,0.09,0.00,1.30,4.52,8.60,-0.17,-0.18,-0.85,-0.46,-1.00,-1.12,-0.06
18,46,4,395091,1.15,4.55,8.41,-0.18,0.03,-0.18,1.33,4.52,8.59,-0.17,-0.18,-0.85,-0.46,-0.31,0.88,1.25
18,46,4,915092,1.42,4.59,8.44,0.10,0.01,-0.12,1.38,4.52,8.58,-0.18,-0.18,-0.86,-0.45,-0.62,0.88,0.50
18,46,5,441088,1.36,4.38,8.53,-0.01,-0.15,-0.04,1.37,4.53,8.58,-0.18,-0.18,-0.86,-0.45,2.06,5.00,-0.56
18,46,5,959091,1.14,4.60,8.34,-0.06,0.05,-0.21,1.29,4.56,8.58,-0.17,-0.18,-0.85,-0.46,-1.37,-4.06,-2.25
18,46,6,479093,1.16,4.40,8.54,-0.05,-0.14,-0.05,1.22,4.55,8.59,-0.17,-0.18,-0.85,-0.46,0.13,-1.19,-1.44
18,46,6,999090,0.98,4.50,8.56,-0.19,-0.04,-0.04,1.18,4.54,8.60,-0.17,-0.18,-0.85,-0.46,-1.56,-3.31,4.56
18,46,7,517095,1.22,4.60,8.48,0.08,0.04,-0.06,1.23,4.55,8.59,-0.17,-0.18,-0.85,-0.46,-0.13,-4.00,-1.50
18,46,8,43093,1.09,4.56,8.54,-0.18,0.03,-0.06,1.27,4.53,8.60,-0.17,-0.18,-0.85,-0.46,0.69,1.81,-0.31
18,46,8,561090,1.14,4.44,8.24,0.13,0.00,-0.25,1.14,4.55,8.61,-0.17,-0.18,-0.86,-0.45,0.69,-2.00,-1.19
18,46,9,79089,1.47,4.60,8.66,0.22,0.09,0.05,1.25,4.51,8.61,-0.17,-0.18,-0.86,-0.45,0.75,5.31,1.69
18,46,9,600092,1.32,4.88,8.54,0.03,0.34,-0.05,1.29,4.54,8.59,-0.17,-0.18,-0.86,-0.45,-1.62,-7.12,-6.44
18,46,10,115802,1.17,4.69,8.43,-0.10,0.10,-0.13,1.27,4.59,8.57,-0.17,-0.18,-0.85,-0.46,0.75,-0.13,-0.37
18,46,10,644093,1.29,4.75,8.59,-0.03,0.13,0.04,1.32,4.62,8.54,-0.18,-0.18,-0.85,-0.46,-0.37,1.69,-0.62
18,46,11,166092,1.26,4.54,8.47,-0.08,-0.08,-0.06,1.34,4.63,8.53,-0.18,-0.18,-0.85,-0.46,-0.75,-0.94,0.50
18,46,11,688094,1.61,4.19,8.42,0.19,-0.41,-0.12,1.41,4.60,8.54,-0.18,-0.18,-0.85,-0.46,-0.06,6.06,-1.44
18,46,12,210090,1.19,4.60,8.45,-0.15,0.00,-0.09,1.34,4.60,8.55,-0.18,-0.18,-0.85,-0.47,-1.19,2.50,-1.37
18,46,12,728095,1.20,4.64,8.43,-0.04,0.04,-0.05,1.29,4.61,8.55,-0.18,-0.18,-0.85,-0.47,-0.88,-0.31,-0.37
18,46,13,249093,1.12,4.73,8.49,-0.12,0.12,-0.06,1.25,4.61,8.56,-0.18,-0.18,-0.85,-0.47,0.19,1.94,-0.44
18,46,13,768094,1.15,4.61,8.37,-0.02,0.00,-0.19,1.18,4.61,8.57,-0.17,-0.18,-0.84,-0.47,-0.13,1.62,-0.88
18,46,14,286093,1.14,4.56,8.59,-0.07,-0.03,0.01,1.21,4.59,8.57,-0.17,-0.18,-0.84,-0.48,-0.50,0.00,0.44
18,46,14,805091,1.21,4.47,8.65,-0.02,-0.13,0.08,1.24,4.60,8.56,-0.18,-0.18,-0.84,-0.47,0.13,-2.75,0.31
18,46,15,325092,1.23,4.65,8.47,-0.07,0.04,-0.08,1.31,4.60,8.55,-0.18,-0.18,-0.84,-0.47,-0.19,-1.69,0.62
18,46,15,848093,1.45,4.96,8.29,0.08,0.32,-0.24,1.36,4.63,8.53,-0.18,-0.18,-0.84,-0.47,1.69,7.31,-0.31
18,46,16,368093,1.14,4.66,8.29,-0.09,0.02,-0.26,1.24,4.63,8.55,-0.18,-0.18,-0.84,-0.47,0.00,8.44,3.06
18,46,16,888093,0.00,0.00,0.00,0.00,0.00,0.00,0.00,0.00,0.00,0.00,0.00,0.00,0.00,0.00,0.00,0.00
18,46,17,490122,1.27,4.80,8.30,-0.10,0.20,-0.24,1.37,4.60,8.54,-0.18,-0.18,-0.85,-0.47,-0.62,0.75,-1.12
18,46,18,9093,1.30,4.87,8.63,-0.11,0.32,0.06,1.42,4.55,8.56,-0.18,-0.17,-0.84,-0.48,-1.62,-1.50,-3.31
18,46,18,533093,1.05,4.63,8.34,-0.21,0.07,-0.03,1.04,4.51,8.64,-0.16,-0.18,-0.85,-0.47,-1.25,14.19,2.56
18,46,19,52093,0.90,4.35,8.49,-0.22,-0.10,-0.17,1.12,4.45,8.66,-0.17,-0.18,-0.85,-0.47,-1.94,7.31,1.94
18,46,19,583092,1.22,4.41,8.61,-0.02,0.01,-0.03,1.16,4.51,8.62,-0.17,-0.18,-0.84,-0.48,-1.75,2.00,-0.19
18,46,20,111035,0.85,4.17,8.67,-0.21,-0.23,-0.01,1.07,4.40,8.69,-0.16,-0.17,-0.84,-0.48,-0.88,1.56,5.44
18,46,20,640092,1.16,4.56,8.57,-0.10,0.22,-0.12,1.27,4.34,8.69,-0.17,-0.17,-0.84,-0.48,1.44,-4.37,1.69
18,46,21,163075,1.16,4.29,8.64,0.14,-0.13,-0.04,1.02,4.42,8.68,-0.16,-0.17,-0.84,-0.49,0.06,7.50,-4.81
18,46,21,682063,1.17,4.46,8.52,0.08,0.02,-0.15,1.08,4.44,8.67,-0.17,-0.17,-0.84,-0.49,0.94,5.19,-0.06
18,46,22,206092,1.19,4.24,8.87,0.13,-0.16,0.17,1.05,4.40,8.69,-0.16,-0.17,-0.84,-0.49,1.00,1.31,0.75
18,46,22,725092,0.94,4.19,8.72,-0.12,-0.07,-0.04,1.06,4.26,8.76,-0.16,-0.17,-0.84,-0.49,0.00,-2.44,0.69
18,46,23,246092,1.56,4.49,8.79,0.58,0.19,0.03,0.98,4.30,8.75,-0.16,-0.17,-0.84,-0.49,2.87,-6.62,-4.44
18,46,23,770092,0.49,3.81,8.80,-0.25,-0.30,-0.05,0.74,4.12,8.86,-0.14,-0.17,-0.85,-0.48,4.44,7.00,-4.94
18,46,24,288092,1.83,4.70,8.74,-0.29,0.23,0.16,1.91,4.36,8.57,-0.21,-0.14,-0.81,-0.52,4.81,-10.38,-5.44
18,46,24,807092,2.73,4.91,8.05,-0.06,0.62,-0.30,2.81,4.29,8.35,-0.25,-0.11,-0.80,-0.53,-0.13,-6.37,2.12
18,46,25,328092,2.89,3.15,8.04,0.50,-1.08,-0.46,2.39,4.24,8.51,-0.23,-0.12,-0.81,-0.52,-2.62,27.06,6.62
18,46,25,846090,6.01,3.58,9.42,2.03,-0.41,1.41,3.98,4.00,8.01,-0.30,-0.06,-0.79,-0.53,-3.56,-12.31,6.00
18,46,26,371092,3.63,4.10,8.88,0.18,0.27,0.53,3.45,3.82,8.34,-0.26,-0.07,-0.81,-0.53,0.56,1.37,-3.50
18,46,26,891089,2.35,4.30,8.31,-0.49,0.42,-0.22,2.85,3.87,8.54,-0.24,-0.09,-0.81,-0.53,4.37,8.13,-1.50
18,46,27,411087,2.51,4.16,8.23,0.14,0.00,-0.38,2.30,4.15,8.58,-0.22,-0.11,-0.80,-0.54,12.88,2.12,-12.31
18,46,27,931080,1.24,4.31,8.87,-0.54,0.00,0.24,1.79,4.30,8.62,-0.21,-0.13,-0.78,-0.57,2.06,-0.69,-14.00
18,46,28,450090,0.58,5.25,8.77,-0.45,0.79,0.11,1.04,4.46,8.66,-0.18,-0.16,-0.78,-0.57,2.06,33.19,-4.81
18,46,28,974093,2.64,3.87,9.93,0.54,0.28,1.05,2.09,3.59,8.88,-0.20,-0.09,-0.79,-0.57,-20.62,-1.31,13.56
18,46,29,495456,-0.33,-0.04,7.94,-0.57,-1.00,-1.81,0.23,0.96,9.75,-0.03,-0.04,-0.87,-0.48,5.00,-71.50,20.37
18,46,30,13096,2.89,3.68,9.64,0.11,0.93,0.54,2.52,2.90,9.02,-0.19,-0.07,-0.86,-0.46,0.62,29.00,-8.81
18,46,30,532057,1.85,2.61,8.93,0.06,0.14,-0.38,1.78,2.48,9.31,-0.14,-0.07,-0.87,-0.46,8.19,3.44,-1.12
18,46,31,53089,1.67,2.97,9.22,0.08,0.02,0.00,1.58,2.94,9.21,-0.15,-0.10,-0.87,-0.47,-5.94,-5.12,5.37
18,46,31,576088,1.98,3.07,9.16,0.09,0.09,0.01,1.89,2.98,9.14,-0.16,-0.09,-0.87,-0.46,0.13,-3.62,1.19
18,46,32,97094,0.00,0.00,0.00,0.00,0.00,0.00,0.00,0.00,0.00,-0.16,-0.09,-0.87,-0.46,-0.13,2.94,-3.50
18,46,32,662095,1.71,2.39,9.24,-0.34,0.13,-0.07,2.05,2.25,9.31,-0.15,-0.05,-0.88,-0.45,-4.37,-13.50,11.75
18,46,33,182093,2.10,2.46,9.12,-0.19,0.41,-0.17,2.30,2.05,9.30,-0.15,-0.04,-0.89,-0.43,1.94,-9.88,-2.81
18,46,33,704090,0.00,0.28,-0.38,-0.11,-0.14,0.06,2.64,2.29,9.16,-0.18,-0.04,-0.88,-0.44,0.00,1.75,-2.37
18,46,34,225091,2.73,2.55,8.80,-0.29,0.31,-0.24,3.03,2.23,9.05,-0.19,-0.03,-0.87,-0.45,1.75,-14.63,4.69
18,46,34,747092,3.24,2.32,8.77,-0.07,-0.11,-0.12,3.31,2.43,8.90,-0.21,-0.03,-0.87,-0.44,-1.75,0.44,0.00
18,46,35,269093,0.00,0.00,0.00,0.00,0.00,0.00,0.00,0.00,0.00,-0.22,-0.02,-0.87,-0.45,-0.94,-12.37,-4.62
18,46,35,834093,3.54,3.10,8.97,-0.02,0.56,0.19,3.56,2.53,8.77,-0.23,-0.03,-0.86,-0.46,-1.62,2.94,1.69
18,46,36,354093,0.00,0.00,0.00,0.00,0.00,0.00,0.00,0.00,0.00,0.00,0.00,0.00,0.00,0.00,0.00,0.00
18,46,36,961093,2.45,2.52,7.97,-1.23,-0.16,-0.70,3.67,2.69,8.68,-0.24,-0.03,-0.86,-0.46,6.62,7.75,-4.87
18,46,37,480093,2.77,2.99,8.72,-0.17,-0.10,-0.09,2.94,3.10,8.82,-0.21,-0.07,-0.86,-0.46,6.56,11.19,-2.94
18,46,37,997092,2.65,3.23,8.75,-0.36,0.17,-0.15,2.99,3.04,8.82,-0.21,-0.07,-0.87,-0.44,0.81,3.69,-0.31
18,46,38,515095,3.17,2.75,8.81,0.06,-0.31,0.02,3.10,3.06,8.78,-0.22,-0.07,-0.87,-0.44,-0.44,2.12,5.81
18,46,39,36093,3.25,2.02,9.10,0.13,-0.27,0.09,3.12,2.30,9.00,-0.20,-0.04,-0.88,-0.43,-0.56,-2.50,1.75
18,46,39,555092,3.34,3.20,8.76,0.24,0.11,0.00,3.10,3.08,8.77,-0.22,-0.08,-0.88,-0.42,7.81,-6.50,4.75
18,46,40,73089,3.02,3.56,8.61,-0.03,0.03,0.00,3.07,3.52,8.61,-0.22,-0.10,-0.88,-0.40,-2.37,-4.94,7.25
18,46,40,600092,3.12,3.41,8.62,-0.04,0.00,0.00,3.17,3.41,8.62,-0.22,-0.10,-0.89,-0.39,-0.75,1.19,1.37
18,46,41,118090,3.19,3.36,8.28,-0.53,0.06,-0.16,3.70,3.31,8.45,-0.25,-0.08,-0.88,-0.39,13.44,18.31,-4.75
18,46,41,638091,2.56,4.13,8.57,-0.20,0.23,0.01,2.77,3.89,8.56,-0.21,-0.13,-0.89,-0.38,-3.56,-36.00,1.06
18,46,42,160090,2.93,3.88,8.54,0.05,0.00,0.01,2.88,3.88,8.52,-0.22,-0.12,-0.88,-0.39,-2.44,-6.62,2.31
18,46,42,680091,3.17,3.91,8.64,0.23,0.09,0.10,2.95,3.81,8.53,-0.23,-0.12,-0.88,-0.40,-1.75,-6.25,0.00
18,46,43,224837,3.00,3.77,8.54,-0.10,0.05,0.02,3.11,3.71,8.52,-0.23,-0.11,-0.88,-0.40,-3.06,-3.69,1.06
18,46,43,749095,4.13,4.44,8.71,0.53,0.57,0.45,3.59,3.87,8.26,-0.26,-0.10,-0.86,-0.42,7.00,-43.69,-23.62
18,46,44,278093,2.57,4.22,8.35,0.00,-0.10,-0.05,2.57,4.33,8.41,-0.22,-0.14,-0.86,-0.43,-8.75,-2.50,6.06
18,46,44,801093,2.78,3.77,8.62,0.07,-0.16,0.05,2.70,3.93,8.56,-0.22,-0.13,-0.88,-0.41,-0.69,1.81,4.75
18,46,45,319092,2.70,3.55,8.71,0.00,-0.14,0.06,2.70,3.74,8.65,-0.21,-0.12,-0.88,-0.42,-1.69,-0.50,1.06
18,46,45,837092,2.60,3.62,8.69,-0.06,-0.08,0.01,2.66,3.71,8.67,-0.21,-0.12,-0.88,-0.42,2.62,-2.44,-1.00
18,46,46,369093,2.57,3.53,8.75,-0.15,-0.13,0.05,2.75,3.65,8.67,-0.21,-0.11,-0.87,-0.42,-2.62,0.56,-4.31
18,46,46,899063,2.66,3.49,8.72,-0.07,-0.07,0.01,2.74,3.57,8.71,-0.21,-0.10,-0.87,-0.43,1.19,2.56,2.75
18,46,47,425066,3.42,2.81,9.33,0.19,-0.17,0.56,3.22,2.99,8.76,-0.22,-0.07,-0.88,-0.41,0.06,-11.81,3.62
18,46,47,944087,2.81,3.14,8.90,-0.13,0.04,0.08,2.95,3.10,8.82,-0.21,-0.08,-0.89,-0.40,-1.06,2.81,2.75
18,46,48,466063,0.00,0.00,0.00,0.00,0.00,0.00,0.00,0.00,0.00,-0.22,-0.08,-0.88,-0.40,0.88,-8.56,-0.56
18,46,49,30093,2.86,2.62,8.67,-0.37,-0.49,-0.04,3.24,3.11,8.71,-0.22,-0.08,-0.88,-0.41,5.25,30.06,-3.06
18,46,49,548092,2.72,3.34,9.02,-0.47,0.15,0.13,3.16,3.13,8.73,-0.22,-0.08,-0.88,-0.41,-6.12,-5.56,1.50
18,46,50,72093,3.48,3.25,8.87,0.23,0.11,0.17,3.25,3.13,8.70,-0.22,-0.08,-0.88,-0.42,-3.19,1.50,0.19
18,46,50,591089,3.25,2.91,8.80,-0.01,-0.16,0.08,3.27,3.07,8.71,-0.22,-0.07,-0.88,-0.41,-0.50,-2.06,0.31
18,46,51,110093,3.64,3.25,8.28,-0.62,0.26,-0.02,4.26,2.99,8.30,-0.27,-0.05,-0.87,-0.41,-0.69,5.06,-9.31
18,46,51,634091,3.96,2.25,8.78,0.15,-0.18,0.08,3.81,2.43,8.69,-0.24,-0.03,-0.88,-0.41,3.25,11.81,12.69
18,46,52,152091,3.49,2.45,8.90,-0.12,0.05,0.11,3.61,2.40,8.79,-0.22,-0.04,-0.90,-0.37,0.56,2.75,3.87
18,46,52,673089,3.47,3.32,8.78,0.17,0.32,0.05,3.29,3.00,8.73,-0.22,-0.07,-0.89,-0.39,2.81,0.50,-11.94
18,46,53,190623,3.33,3.11,8.83,0.03,-0.04,0.15,3.22,3.21,8.68,-0.22,-0.08,-0.88,-0.40,-1.94,7.75,-1.31
18,46,53,714090,2.98,3.32,8.74,-0.07,0.25,-0.05,3.06,3.07,8.79,-0.21,-0.08,-0.89,-0.40,-1.50,-1.56,0.94
18,46,54,234090,3.45,3.34,8.53,-0.15,0.22,-0.03,3.60,3.11,8.56,-0.24,-0.07,-0.88,-0.40,1.94,-21.12,-3.19
18,46,54,758093,2.68,2.97,8.39,-0.37,-0.11,-0.39,3.05,3.08,8.79,-0.21,-0.09,-0.90,-0.38,-3.12,5.62,-3.31
18,46,55,281091,2.67,3.31,8.75,-0.22,0.03,0.00,2.90,3.24,8.78,-0.21,-0.10,-0.89,-0.39,-2.37,8.69,-3.12
18,46,55,801091,4.13,3.66,8.52,0.31,0.35,0.11,3.81,3.31,8.40,-0.26,-0.08,-0.88,-0.40,-3.62,-22.31,7.69
18,46,56,320092,3.99,3.45,7.98,-0.24,0.12,-0.19,4.24,3.33,8.18,-0.28,-0.07,-0.88,-0.38,1.06,9.63,-1.56
18,46,56,840091,3.99,3.48,8.35,-0.09,0.07,0.12,4.08,3.41,8.23,-0.27,-0.08,-0.88,-0.38,-2.87,5.69,1.31
18,46,57,359091,3.91,3.19,8.24,-0.06,0.00,-0.13,3.98,3.18,8.37,-0.26,-0.07,-0.88,-0.38,-5.37,-7.12,-1.81
18,46,57,884095,4.49,3.56,8.60,0.24,0.22,0.26,4.35,3.28,8.14,-0.28,-0.06,-0.87,-0.40,-0.13,-24.63,-2.81
18,46,58,404091,4.24,3.74,8.03,-0.04,0.12,0.00,4.19,3.64,8.08,-0.29,-0.07,-0.85,-0.43,8.31,58.19,-19.06
18,46,58,925087,4.65,3.08,8.33,0.23,0.17,0.08,4.42,2.91,8.25,-0.28,-0.04,-0.87,-0.41,-4.44,-3.56,12.75
18,46,59,445095,4.31,2.80,8.51,0.22,-0.26,0.14,4.08,3.07,8.36,-0.26,-0.06,-0.88,-0.39,-2.37,2.50,5.56
18,46,59,968090,4.11,3.63,8.87,0.09,0.53,0.47,4.01,3.09,8.39,-0.26,-0.07,-0.89,-0.38,-2.87,-7.87,0.69
18,47,0,486093,3.97,2.74,8.67,0.14,0.03,0.06,3.83,2.71,8.60,-0.24,-0.05,-0.89,-0.38,14.00,17.37,-3.00
18,47,1,5091,3.48,2.79,8.59,-0.21,-0.10,-0.01,3.71,2.88,8.60,-0.24,-0.07,-0.90,-0.36,-5.19,-5.94,9.69
18,47,1,525093,3.92,3.19,8.29,0.14,0.09,-0.21,3.78,3.09,8.50,-0.24,-0.08,-0.90,-0.34,2.87,-6.37,5.94
18,47,2,43092,3.99,3.41,8.37,-0.02,0.72,-0.15,4.02,2.68,8.52,-0.25,-0.06,-0.91,-0.32,-4.12,-3.94,9.50
18,47,2,562090,4.42,2.35,8.54,0.18,-0.18,0.07,4.24,2.55,8.46,-0.26,-0.06,-0.92,-0.30,6.25,-5.44,-2.37
18,47,3,83092,4.10,3.84,8.60,0.21,0.64,0.18,3.88,3.19,8.41,-0.25,-0.08,-0.90,-0.35,-7.56,-10.13,-10.81
18,47,3,602090,4.86,3.14,8.29,0.52,0.60,-0.12,4.33,2.53,8.42,-0.26,-0.04,-0.89,-0.37,-14.94,-6.75,20.44
18,47,4,124090,4.14,0.77,8.12,-0.64,0.25,-0.40,4.79,0.52,8.53,-0.25,0.05,-0.92,-0.30,-20.44,14.25,17.69
18,47,4,646093,3.24,-0.30,9.33,-0.25,0.65,0.22,3.49,-0.95,9.11,-0.17,0.08,-0.97,-0.17,-26.44,26.19,25.62
18,47,5,166090,3.66,-1.67,8.75,0.00,0.32,-0.11,3.66,-2.00,8.87,-0.17,0.14,-0.96,-0.20,11.50,-6.44,-19.00
18,47,5,685093,4.50,-0.91,8.16,0.26,0.23,-0.60,4.22,-1.15,8.77,-0.20,0.12,-0.93,-0.27,-8.69,10.81,-6.75
18,47,6,205092,2.87,-1.55,9.65,-0.58,0.19,0.64,3.45,-1.74,9.00,-0.15,0.13,-0.95,-0.24,-0.25,5.56,7.00
18,47,6,723092,3.22,-2.64,8.37,0.30,-1.21,-0.87,2.92,-1.43,9.25,-0.13,0.11,-0.96,-0.22,2.56,5.75,5.12
18,47,7,242093,1.90,-1.34,9.29,-0.49,0.19,-0.08,2.40,-1.53,9.38,-0.10,0.10,-0.96,-0.22,1.94,1.56,-5.06
18,47,7,767091,3.23,-2.39,8.76,0.47,-1.08,-0.61,2.70,-1.37,9.32,-0.12,0.10,-0.96,-0.25,4.06,4.69,-5.25
18,47,8,286093,1.70,-1.13,9.47,-0.84,0.45,0.13,2.55,-1.58,9.33,-0.10,0.12,-0.95,-0.27,1.00,-1.37,-8.38
18,47,8,806091,2.55,-1.40,9.50,-0.19,-0.20,0.16,2.75,-1.19,9.33,-0.11,0.10,-0.93,-0.32,-4.81,-1.69,-18.50
18,47,9,324093,3.36,-2.07,8.92,0.33,-1.06,-0.34,3.03,-1.00,9.26,-0.13,0.11,-0.92,-0.36,8.56,-9.63,15.38
18,47,9,842092,3.61,-1.31,9.18,0.05,-0.39,0.09,3.56,-0.91,9.08,-0.16,0.10,-0.93,-0.30,10.75,-8.00,-9.25
18,47,10,364089,4.41,-0.82,8.73,-0.02,-0.63,0.00,4.44,-0.19,8.74,-0.22,0.09,-0.92,-0.32,-5.50,2.75,-5.50
18,47,10,890091,3.99,-0.31,8.74,-0.13,-0.21,-0.20,4.20,0.00,8.85,-0.21,0.08,-0.91,-0.35,0.88,7.69,-14.63
18,47,11,407035,4.53,-0.28,8.14,0.60,-0.51,-0.87,4.01,0.04,8.94,-0.20,0.07,-0.92,-0.34,12.13,19.00,4.37
18,47,11,931090,3.00,0.20,9.46,-0.79,-0.13,0.43,3.79,0.34,9.03,-0.19,0.05,-0.93,-0.32,5.06,2.06,-4.50
18,47,12,450092,4.16,0.43,8.65,-0.08,-0.13,-0.16,4.24,0.57,8.82,-0.22,0.04,-0.93,-0.30,0.13,19.19,-2.94
18,47,12,975095,3.34,0.81,8.72,-0.24,0.30,-0.38,3.59,0.51,9.10,-0.19,0.03,-0.93,-0.31,-4.62,34.69,-5.50
18,47,13,496090,4.26,0.38,9.27,0.39,-0.23,0.28,3.87,0.61,8.98,-0.20,0.03,-0.93,-0.31,4.81,-28.69,1.44
18,47,14,18092,4.35,1.31,8.90,0.29,0.03,0.07,4.06,1.27,8.83,-0.22,0.01,-0.92,-0.32,-0.56,11.06,-1.69
18,47,14,540093,3.52,0.77,9.76,0.84,-0.37,0.39,2.68,1.15,9.36,-0.15,-0.01,-0.93,-0.33,-3.94,-0.06,3.12
18,47,15,59093,0.00,0.00,0.00,0.00,0.00,0.00,0.00,0.00,0.00,0.00,0.00,0.00,0.00,0.00,0.00,0.00
18,47,15,666090,4.82,0.79,7.93,-1.17,-0.32,0.25,5.99,1.11,7.67,-0.33,0.04,-0.90,-0.28,-19.00,-15.88,15.25
18,47,16,188093,4.69,-0.03,8.49,-0.26,-0.23,0.03,4.96,0.19,8.45,-0.25,0.07,-0.92,-0.30,-8.06,19.25,-2.06
18,47,16,706084,4.40,0.54,8.96,0.07,0.55,0.20,4.28,0.10,8.81,-0.21,0.07,-0.92,-0.31,-4.12,21.06,-6.87
18,47,17,225093,4.22,0.85,9.04,0.02,0.31,0.19,4.19,0.55,8.84,-0.22,0.05,-0.92,-0.33,6.75,3.06,-4.75
18,47,17,745093,4.28,0.35,8.84,-0.01,0.11,0.03,4.30,0.24,8.80,-0.22,0.06,-0.92,-0.33,-9.25,-3.75,3.44
18,47,18,268093,4.11,0.76,8.82,-0.23,0.53,0.04,4.35,0.23,8.78,-0.22,0.07,-0.92,-0.33,-5.50,1.87,4.81
18,47,18,789093,3.89,-0.38,8.67,-0.22,0.00,-0.21,4.12,-0.38,8.88,-0.20,0.09,-0.92,-0.32,-5.56,4.94,0.69
18,47,19,310093,3.41,-1.06,8.86,-0.54,-0.37,-0.07,3.96,-0.68,8.94,-0.18,0.10,-0.92,-0.32,-9.44,0.31,-5.81
18,47,19,828773,3.88,-1.37,9.15,-0.07,-0.10,0.18,3.95,-1.16,8.89,-0.17,0.13,-0.91,-0.35,-2.94,5.37,-13.25
18,47,20,347091,4.15,-0.84,8.93,0.24,0.28,0.01,3.90,-1.13,8.92,-0.17,0.13,-0.91,-0.36,2.50,6.25,0.88
18,47,20,872090,3.85,-1.55,8.97,0.07,-0.40,0.00,3.77,-1.15,8.97,-0.16,0.13,-0.91,-0.37,5.81,-14.81,5.00
18,47,21,390093,4.04,-0.76,9.03,0.00,0.09,0.14,4.04,-0.86,8.89,-0.18,0.12,-0.90,-0.37,0.94,-2.06,-2.19
18,47,21,912089,4.55,0.00,9.16,0.23,0.63,0.38,4.32,-0.63,8.78,-0.20,0.12,-0.90,-0.37,-0.50,11.75,-9.81
18,47,22,434587,3.87,-0.56,8.88,-0.15,-0.10,-0.08,4.09,-0.44,8.90,-0.19,0.10,-0.90,-0.38,3.81,1.31,6.69
18,47,22,963092,3.88,-0.64,8.85,-0.19,-0.11,-0.07,4.08,-0.55,8.89,-0.18,0.11,-0.90,-0.38,-0.25,1.81,1.00
18,47,23,487095,3.84,-0.56,9.26,0.09,0.16,0.23,3.74,-0.73,9.03,-0.16,0.11,-0.90,-0.39,-1.31,0.00,0.69
18,47,24,8092,4.23,-1.53,8.96,-0.08,-0.59,0.27,4.44,-1.11,8.67,-0.19,0.14,-0.90,-0.37,-5.69,-30.19,8.06
18,47,24,527095,4.88,-1.18,8.79,0.29,-0.12,0.19,4.59,-1.05,8.59,-0.20,0.14,-0.89,-0.37,2.37,-2.56,-1.81
18,47,25,45094,4.73,-0.83,8.67,-0.04,0.00,0.15,4.78,-0.83,8.52,-0.22,0.14,-0.90,-0.36,-0.13,3.94,-1.12
18,47,25,565095,4.14,-0.85,8.82,-0.07,-0.06,-0.02,4.19,-0.79,8.82,-0.19,0.12,-0.90,-0.38,1.31,3.75,0.75
18,47,26,86094,3.53,-0.92,9.18,-0.33,-0.12,0.21,3.84,-0.80,8.98,-0.17,0.12,-0.90,-0.39,-0.25,14.63,-1.00
18,47,26,604093,3.99,-0.56,8.92,0.26,0.03,-0.12,3.73,-0.59,9.04,-0.16,0.11,-0.90,-0.40,3.75,-3.12,-2.37
18,47,27,125093,4.18,-0.61,9.22,0.40,0.03,0.20,3.78,-0.64,9.02,-0.17,0.11,-0.89,-0.40,-5.75,15.13,-4.37
18,47,27,646093,3.68,-0.53,9.28,0.04,-0.02,0.19,3.64,-0.50,9.08,-0.16,0.10,-0.89,-0.42,-3.12,-9.44,4.12
18,47,28,163092,3.48,-0.70,9.25,0.00,-0.09,0.10,3.48,-0.60,9.14,-0.15,0.10,-0.89,-0.41,1.94,3.75,2.87
18,47,28,688092,3.49,-0.74,9.43,0.13,-0.25,0.30,3.26,-0.59,9.22,-0.14,0.10,-0.90,-0.40,-3.87,15.56,-3.56
18,47,29,207092,3.29,-0.77,9.36,0.05,-0.01,0.14,3.23,-0.76,9.22,-0.14,0.10,-0.90,-0.40,-5.75,-10.13,4.06
18,47,29,725092,2.87,-0.78,9.31,-0.30,0.00,0.07,3.18,-0.78,9.24,-0.14,0.10,-0.91,-0.37,5.06,2.06,5.56
18,47,30,243089,3.47,-1.37,10.37,1.18,-0.58,0.87,2.31,-0.78,9.49,-0.10,0.08,-0.92,-0.36,-0.44,-13.69,-6.37
18,47,30,762090,1.33,-0.89,10.26,-0.32,-0.54,0.60,1.65,-0.34,9.65,-0.08,0.04,-0.95,-0.29,-8.56,20.75,36.88
18,47,31,281088,0.00,0.00,0.00,-0.46,0.33,0.35,1.39,-0.50,9.69,-0.06,0.04,-0.97,-0.24,-3.94,-4.31,-6.87
18,47,31,843706,2.67,-1.04,9.73,0.61,-0.61,0.16,2.08,-0.46,9.57,-0.10,0.05,-0.96,-0.26,1.75,-1.25,-12.63
18,47,32,379065,0.00,0.00,0.00,0.00,0.00,0.00,2.36,-0.60,9.49,-0.11,0.06,-0.95,-0.29,-5.00,-3.00,-1.06
18,47,32,976605,0.00,0.00,0.00,0.00,0.00,0.00,0.00,0.00,0.00,0.00,0.00,0.00,0.00,0.00,0.00,0.00
18,47,33,579091,2.87,-1.71,9.19,-0.29,0.01,0.07,3.17,-1.71,9.12,-0.14,0.12,-0.96,-0.23,6.44,-4.37,0.69
18,47,34,108090,2.89,-1.55,9.16,0.03,-0.23,-0.12,2.83,-1.30,9.29,-0.12,0.11,-0.95,-0.28,-0.62,15.00,-14.13
18,47,34,629086,2.70,0.47,9.54,-0.11,0.34,0.15,2.81,0.12,9.39,-0.14,0.04,-0.94,-0.31,18.12,8.94,-14.87
18,47,35,151046,2.65,0.88,9.03,-0.19,0.44,-0.33,2.84,0.43,9.37,-0.15,0.02,-0.95,-0.28,7.56,1.62,22.00
18,47,35,753085,3.48,0.60,10.56,0.76,0.07,1.15,2.71,0.53,9.40,-0.14,0.00,-0.97,-0.20,2.31,-1.62,4.75
18,47,36,275062,3.11,-0.22,8.93,-0.01,-0.97,-0.33,3.13,0.74,9.26,-0.17,-0.00,-0.96,-0.22,8.56,11.38,-9.56
18,47,36,801088,0.00,0.00,0.00,0.00,0.00,0.00,0.00,0.00,0.00,-0.20,0.02,-0.96,-0.19,3.94,-6.19,-11.94
18,47,37,368092,3.21,-0.03,9.07,-0.24,-0.10,-0.10,3.45,0.06,9.17,-0.18,0.04,-0.96,-0.22,-9.56,2.31,4.69
18,47,37,888092,3.01,-0.37,9.05,0.01,0.01,0.03,3.25,-0.33,9.24,-0.16,0.05,-0.96,-0.22,-5.56,7.94,-4.94
18,47,38,407092,3.30,-0.87,9.62,0.24,0.04,0.34,3.06,-0.92,9.26,-0.14,0.09,-0.96,-0.24,-11.44,-1.19,-16.12
18,47,38,928092,3.29,-1.95,9.25,0.39,0.11,0.11,2.89,-2.06,9.13,-0.12,0.14,-0.95,-0.25,0.69,-7.44,3.06
18,47,39,456092,0.00,0.00,0.00,0.00,0.00,0.00,0.00,0.00,0.00,0.00,0.00,0.00,0.00,-0.31,3.25,7.31
18,47,40,40093,0.00,0.00,0.00,0.00,0.00,0.00,2.75,-1.51,9.28,-0.12,0.11,-0.96,-0.23,-8.31,-3.25,-1.06
18,47,40,586093,2.85,-1.66,9.10,0.32,0.15,-0.18,2.51,-1.81,9.30,-0.10,0.12,-0.96,-0.24,1.19,12.25,4.69
18,47,41,107093,1.14,-1.03,9.19,-1.19,0.27,-0.23,2.34,-1.30,9.43,-0.11,0.09,-0.97,-0.18,5.00,13.69,10.25
18,47,41,625093,0.00,0.00,0.00,0.00,0.00,0.00,0.00,0.00,0.00,-0.11,0.10,-0.98,-0.16,3.44,-12.69,1.87
18,47,42,191090,2.48,-1.02,9.99,0.73,0.05,0.41,1.75,-1.07,9.58,-0.08,0.07,-0.98,-0.14,11.00,-17.12,26.06
18,47,42,713092,1.78,0.43,9.54,-0.86,0.90,0.11,2.65,-0.47,9.42,-0.14,0.03,-0.99,-0.03,-0.81,-16.56,19.44
18,47,43,231093,2.38,-0.47,9.19,-0.22,0.56,-0.19,2.61,-1.03,9.39,-0.13,0.06,-0.99,-0.01,-8.63,-20.69,-13.44
18,47,43,749093,2.21,-1.70,9.71,0.00,0.20,0.35,2.17,-1.93,9.36,-0.10,0.11,-0.98,-0.10,-21.25,37.50,-20.19
18,47,44,269093,1.33,-2.43,9.63,0.37,-0.66,0.03,0.96,-1.77,9.59,-0.03,0.10,-0.98,-0.16,12.25,5.81,-18.94
18,47,44,788090,-1.17,-1.42,9.81,-0.67,0.54,0.22,-0.50,-1.96,9.59,0.04,0.10,-0.98,-0.15,-19.12,-7.69,21.56
18,47,45,306090,-1.29,-2.15,9.91,-0.08,-0.29,0.36,-1.14,-1.81,9.56,0.07,0.09,-0.99,-0.09,27.06,-39.81,11.94
18,47,45,825606,-2.31,-0.30,12.10,1.74,-0.39,3.18,-4.06,0.08,8.92,0.21,-0.03,-0.97,-0.13,-3.50,-60.63,-11.25
18,47,46,349093,-4.23,1.01,9.22,-0.01,0.37,0.39,-4.22,0.63,8.82,0.22,-0.07,-0.96,-0.16,32.13,73.75,-19.56
18,47,46,875093,-7.36,-0.03,6.94,-0.65,0.17,-0.20,-6.78,-0.27,7.07,0.36,-0.10,-0.88,-0.28,-0.25,72.37,-50.94
18,47,47,394091,-7.03,-2.36,5.58,0.92,0.09,0.40,-7.95,-2.45,5.18,0.47,-0.10,-0.76,-0.43,16.44,8.00,-35.69
18,47,47,915092,-7.39,-3.77,4.24,0.64,-0.65,-0.41,-8.04,-3.12,4.66,0.49,-0.15,-0.67,-0.53,15.19,7.87,-4.75
18,47,48,437092,-7.75,-3.30,4.89,0.19,-0.22,0.06,-7.95,-3.08,4.83,0.48,-0.15,-0.67,-0.54,-1.75,-3.12,7.75
18,47,48,956093,-8.71,-2.83,4.00,-0.33,-0.11,-0.29,-8.38,-2.72,4.30,0.51,-0.16,-0.69,-0.49,-3.37,9.88,1.06
18,47,49,482083,-8.37,-3.29,2.42,0.23,0.42,-0.42,-8.61,-3.71,2.84,0.57,-0.16,-0.62,-0.51,-2.94,17.87,-22.50
18,47,50,93,0.00,0.00,0.00,0.00,0.00,0.00,0.00,0.00,0.00,0.00,0.00,0.00,0.00,-26.56,7.37,-7.12
18,47,50,589094,0.00,0.00,0.00,0.00,0.00,0.00,0.00,0.00,0.00,0.00,0.00,0.00,0.00,0.00,0.00,0.00
18,47,51,191092,-7.85,-5.03,-2.45,0.48,-0.28,-0.38,-8.33,-4.74,-2.06,0.76,-0.14,-0.48,-0.41,-2.25,-9.00,-1.94
18,47,51,709093,-8.56,-4.25,-0.99,0.21,-0.12,0.43,-8.77,-4.12,-1.42,0.73,-0.18,-0.51,-0.41,7.94,0.50,9.63
18,47,52,233092,-8.76,-4.09,-1.56,-0.09,0.17,0.08,-8.67,-4.26,-1.64,0.74,-0.21,-0.48,-0.43,-1.75,3.31,-12.88
18,47,52,754093,-7.46,-4.96,-2.26,0.51,0.17,0.20,-7.98,-5.13,-2.47,0.77,-0.19,-0.42,-0.45,5.56,-6.81,-17.25
18,47,53,272093,0.00,0.00,0.00,0.00,0.00,0.00,0.00,0.00,0.00,0.00,0.00,0.00,0.00,-11.31,3.50,0.13
18,47,53,856093,-6.19,-5.47,-1.63,1.31,0.43,0.36,-7.54,-5.93,-2.02,0.77,-0.10,-0.44,-0.45,0.00,0.00,0.00
18,47,54,383093,-8.09,-5.04,-1.28,0.15,0.08,0.07,-8.24,-5.12,-1.36,0.74,-0.13,-0.49,-0.44,5.87,-41.37,-1.37
18,47,54,907091,-8.54,-5.12,-1.25,-0.31,0.10,-0.26,-8.23,-5.23,-0.99,0.73,-0.12,-0.50,-0.44,-0.19,7.87,-8.81
18,47,55,425093,-7.74,-6.24,-0.98,0.10,-0.46,0.07,-7.84,-5.78,-1.06,0.74,-0.11,-0.47,-0.47,2.44,-21.19,-2.87
18,47,55,947098,-8.34,-5.05,-0.81,-0.30,0.47,0.17,-8.03,-5.53,-0.99,0.74,-0.10,-0.50,-0.45,-18.75,26.87,3.19
18,47,56,468092,-8.44,-5.77,-2.29,-0.42,-0.58,-0.08,-8.02,-5.18,-2.21,0.78,-0.11,-0.47,-0.41,-7.31,14.19,16.62
18,47,56,985091,0.00,0.00,0.00,0.00,0.00,0.00,0.00,0.00,0.00,0.78,-0.10,-0.50,-0.36,-3.31,-31.06,-4.87
18,47,57,557091,-8.08,-4.35,-2.68,0.22,0.16,-0.07,-8.30,-4.52,-2.60,0.79,-0.10,-0.49,-0.35,-4.75,6.56,-0.25
18,47,58,79091,-7.64,-4.94,-2.60,0.32,0.06,0.14,-7.97,-5.00,-2.75,0.80,-0.06,-0.48,-0.35,-3.25,-3.62,-5.62
18,47,58,596041,-7.62,-4.66,-3.24,0.14,0.43,0.08,-7.80,-5.05,-3.11,0.81,-0.07,-0.46,-0.36,17.87,-12.75,-1.12
18,47,59,115091,-7.58,-5.48,-2.28,0.20,0.11,-0.24,-7.78,-5.61,-2.02,0.77,-0.11,-0.46,-0.44,11.19,-2.12,-7.44
18,47,59,636127,-7.20,-5.90,-1.92,0.27,0.22,-0.24,-7.47,-6.12,-1.68,0.76,-0.12,-0.43,-0.48,12.31,14.81,-9.63
18,48,0,167089,0.00,0.00,0.00,0.00,0.00,0.00,-6.94,-6.80,-1.25,0.74,-0.10,-0.41,-0.52,-11.94,5.62,-20.75
18,48,0,716091,-7.11,-6.33,-1.05,-0.10,0.39,0.27,-7.01,-6.72,-1.32,0.75,-0.08,-0.42,-0.50,-3.69,-6.81,12.37
18,48,1,235093,0.00,0.00,0.00,0.00,0.00,0.00,0.00,0.00,0.00,0.00,0.00,0.00,0.00,0.00,0.00,0.00
18,48,1,838091,-3.25,-8.59,-1.28,0.61,0.32,0.00,-3.87,-8.91,-1.28,0.74,0.12,-0.35,-0.56,1.37,-9.88,-23.31
18,48,2,360091,-4.53,-10.02,-1.28,-1.18,-1.12,-0.44,-3.48,-9.14,-0.61,0.71,0.18,-0.39,-0.56,-9.63,-4.44,14.13
18,48,2,880093,-3.28,-8.30,0.06,0.39,0.77,0.21,-3.68,-9.08,-0.14,0.70,0.14,-0.39,-0.58,10.50,12.31,7.00
18,48,3,402091,-3.61,-8.98,1.44,0.00,0.09,0.65,-3.61,-9.08,0.79,0.66,0.15,-0.42,-0.61,-1.56,-8.75,-15.63
18,48,3,921089,-3.51,-8.78,-0.16,-0.39,0.51,-0.43,-3.11,-9.29,0.27,0.67,0.19,-0.40,-0.59,0.00,-4.87,-2.87
18,48,4,442093,-0.75,-9.78,1.85,0.75,-0.20,0.43,-1.51,-9.58,1.42,0.61,0.24,-0.39,-0.65,9.94,1.31,-12.13
18,48,4,962095,-2.12,-9.50,1.01,-0.71,0.26,-0.14,-1.27,-9.63,1.30,0.60,0.26,-0.39,-0.65,4.69,11.50,0.88
18,48,5,481090,-1.42,-9.82,2.29,-0.38,-0.21,0.67,-1.04,-9.61,1.61,0.59,0.26,-0.38,-0.66,-9.88,-5.44,-5.94
18,48,6,2095,0.97,-9.39,0.75,1.15,0.36,-0.20,-0.17,-9.75,0.95,0.60,0.29,-0.34,-0.66,-0.44,-2.69,2.31
18,48,6,520096,-0.50,-9.41,-0.17,0.01,0.37,-0.67,-0.51,-9.78,0.49,0.64,0.26,-0.31,-0.66,-8.38,7.37,-3.31
18,48,7,38095,-1.51,-9.51,2.27,-0.69,0.24,1.81,-0.81,-9.76,0.45,0.65,0.23,-0.30,-0.66,-7.19,11.25,-2.69
18,48,7,560090,-0.58,-9.78,-0.33,-0.12,0.00,0.10,-0.46,-9.78,-0.44,0.68,0.25,-0.27,-0.64,3.44,0.50,0.62
18,48,8,78092,0.00,0.00,0.00,0.03,-0.04,0.12,-0.28,-9.80,0.07,0.66,0.24,-0.27,-0.66,-1.87,-0.13,-0.56
18,48,8,604092,5.46,-11.77,-4.33,5.00,-1.98,-3.91,0.46,-9.78,-0.41,0.67,0.27,-0.22,-0.65,-10.94,-3.19,-13.13
18,48,9,125093,0.09,-9.67,0.52,-0.18,0.12,0.78,0.28,-9.79,-0.26,0.67,0.25,-0.22,-0.66,-2.81,-0.62,-2.81
18,48,9,642089,0.37,-9.79,0.16,0.00,-0.06,0.65,0.28,-9.79,-0.30,0.67,0.25,-0.22,-0.66,1.87,0.19,1.06
18,48,10,176091,0.88,-10.07,-0.50,0.66,-0.27,-0.18,0.22,-9.79,-0.31,0.67,0.25,-0.23,-0.66,0.56,-0.13,0.13
18,48,10,697033,0.34,-9.98,0.44,0.02,-0.09,0.56,0.24,-9.80,-0.25,0.67,0.25,-0.23,-0.66,-1.19,-0.75,-1.50
18,48,11,217091,0.96,-9.85,0.32,0.60,-0.05,0.45,0.35,-9.79,-0.12,0.67,0.25,-0.22,-0.67,-0.56,-0.13,1.62
18,48,11,737093,-0.29,-9.83,-0.44,-0.49,-0.03,-0.20,0.20,-9.80,-0.24,0.67,0.25,-0.23,-0.66,-0.88,-0.37,0.19
18,48,12,259095,0.00,0.00,0.00,0.00,0.00,0.00,0.13,-9.78,-0.60,0.67,0.28,-0.25,-0.64,-3.00,1.37,0.25
18,48,12,825091,0.51,-8.62,-0.36,0.72,0.96,0.33,0.12,-9.79,-0.49,0.67,0.28,-0.26,-0.64,-1.31,7.81,-1.00
18,48,13,345093,0.15,-10.17,-0.15,0.00,-0.38,0.33,0.15,-9.79,-0.49,0.67,0.28,-0.26,-0.64,1.00,-0.31,-1.69
18,48,13,864079,0.69,-9.98,-0.51,0.51,-0.19,0.01,0.17,-9.79,-0.52,0.67,0.28,-0.25,-0.64,-0.25,-0.19,0.56
18,48,14,385085,0.00,0.00,0.00,0.00,0.00,0.00,0.00,0.00,0.00,0.67,0.28,-0.25,-0.64,1.56,0.06,0.06
18,48,14,950094,0.39,-9.83,-0.50,0.22,-0.04,0.02,0.17,-9.79,-0.53,0.67,0.28,-0.25,-0.64,0.56,0.06,0.50
18,48,15,473091,0.33,-9.77,-0.84,0.23,0.01,-0.28,0.09,-9.79,-0.55,0.67,0.28,-0.26,-0.64,0.81,-0.50,-0.25
18,48,15,994092,0.51,-9.76,-0.64,0.33,0.02,-0.06,0.18,-9.78,-0.58,0.67,0.28,-0.25,-0.64,-0.62,-0.44,1.25
18,48,16,512093,0.00,0.00,0.00,0.00,0.00,0.00,0.00,0.00,0.00,0.00,0.00,0.00,0.00,-0.56,0.00,0.31
18,48,17,96093,-0.04,-9.43,-0.23,-0.31,0.35,0.33,0.27,-9.78,-0.57,0.67,0.28,-0.25,-0.64,-1.87,0.81,-1.44
18,48,17,614093,0.33,-9.56,-0.97,-0.17,0.22,-0.90,0.50,-9.79,-0.07,0.70,-0.09,0.12,-0.69,-0.13,2.94,2.50
18,48,18,136092,1.05,-9.63,-0.29,0.60,0.16,-0.27,0.44,-9.79,-0.01,0.69,-0.14,0.17,-0.69,-0.31,118.13,2.19
18,48,18,656091,0.00,0.00,0.00,0.00,0.00,0.00,0.00,0.00,0.00,0.00,0.00,0.00,0.00,-1.94,-15.94,-2.50
18,48,19,245092,0.79,-9.77,-0.30,0.21,0.00,-0.18,0.58,-9.78,-0.12,0.70,-0.12,0.16,-0.68,-0.94,-33.06,0.37
18,48,19,763091,0.21,-9.70,0.00,-0.34,0.08,0.27,0.55,-9.78,-0.27,0.72,-0.04,0.08,-0.69,-0.50,0.00,-0.06
18,48,20,293093,0.44,-9.85,0.09,-0.15,0.07,0.17,0.68,-9.77,-0.27,0.72,-0.04,0.08,-0.69,-0.50,-0.13,0.81
18,48,20,836038,0.66,-9.86,-0.35,0.01,-0.08,0.03,0.64,-9.77,-0.39,0.72,-0.01,0.06,-0.69,2.44,0.25,0.00
18,48,21,358038,1.74,-9.59,-0.57,1.06,0.18,-0.26,0.67,-9.77,-0.31,0.72,-0.01,0.06,-0.69,0.19,-1.50,-0.44
18,48,21,879089,0.70,-9.95,-0.36,0.25,-0.17,0.18,0.44,-9.78,-0.54,0.71,0.14,-0.10,-0.68,1.62,-0.25,0.44
18,48,22,398072,0.45,-9.84,-0.75,-0.03,-0.02,-0.20,0.48,-9.77,-0.56,0.71,0.14,-0.10,-0.68,-0.75,0.06,0.31
18,48,22,919091,0.53,-9.81,-0.34,0.29,0.00,0.24,0.38,-9.78,-0.50,0.71,0.14,-0.10,-0.68,-0.06,-0.31,-0.81
18,48,23,443089,1.22,-9.69,-0.09,0.80,0.09,0.33,0.41,-9.78,-0.43,0.71,0.14,-0.11,-0.68,1.50,-13.44,1.06
18,48,23,964092,-0.25,-9.81,-0.30,-0.31,0.19,0.26,0.09,-9.79,-0.47,0.68,0.26,-0.24,-0.65,0.31,-11.25,0.13
18,48,24,483091,-0.15,-9.70,-0.61,-0.10,0.08,-0.04,-0.04,-9.79,-0.56,0.64,0.35,-0.33,-0.60,-2.25,-68.19,-0.44
18,48,25,2092,-0.31,-9.78,-0.70,-0.24,0.00,0.00,-0.07,-9.78,-0.70,0.63,0.37,-0.35,-0.58,0.81,0.06,0.50
18,48,25,526089,0.00,0.00,0.00,0.00,0.00,0.00,0.00,0.00,0.00,0.00,0.00,0.00,0.00,-0.56,-23.19,0.37
18,48,26,113093,-0.17,-9.82,-0.26,0.16,-0.04,0.32,-0.32,-9.78,-0.56,0.56,0.46,-0.45,-0.51,0.13,0.00,-0.88
18,48,26,633092,-0.23,-9.79,-0.30,0.05,0.00,0.20,-0.28,-9.78,-0.51,0.56,0.46,-0.45,-0.52,-0.44,-0.13,-0.06
18,48,27,155092,0.00,-9.82,-0.37,0.26,-0.03,0.12,-0.26,-9.79,-0.49,0.56,0.46,-0.45,-0.52,1.44,0.13,0.44
18,48,27,677092,0.04,-9.86,-0.54,0.31,-0.07,-0.12,-0.27,-9.79,-0.42,0.56,0.46,-0.46,-0.52,-0.37,0.06,0.81
18,48,28,202092,0.15,-9.77,-0.40,0.42,0.04,-0.13,-0.23,-9.79,-0.29,0.55,0.46,-0.46,-0.52,0.31,-0.06,0.94
18,48,28,721091,0.31,-9.84,-0.54,0.56,-0.04,-0.27,-0.24,-9.80,-0.26,0.55,0.46,-0.46,-0.52,1.31,-0.06,0.06
18,48,29,242090,0.02,-9.71,-0.52,0.24,0.08,-0.28,-0.22,-9.80,-0.23,0.55,0.46,-0.46,-0.53,2.00,-0.06,-0.56
18,48,29,763093,-0.22,-9.78,-0.23,0.01,0.01,-0.03,-0.23,-9.80,-0.20,0.55,0.46,-0.46,-0.53,1.69,-0.13,-0.37
18,48,30,281090,0.00,0.00,0.00,0.00,0.00,0.00,-0.20,-9.80,-0.19,0.55,0.46,-0.46,-0.53,-1.06,-0.56,3.69
18,48,30,832093,0.00,0.00,0.00,0.00,0.00,0.00,0.00,0.00,0.00,0.00,0.00,0.00,0.00,0.00,0.00,0.00
18,48,31,434090,-0.17,-9.77,-0.42,0.12,0.02,-0.32,-0.30,-9.80,-0.11,0.55,0.45,-0.46,-0.53,0.31,-0.19,0.37
18,48,31,953093,-0.27,-9.86,-0.60,0.10,-0.06,-0.42,-0.38,-9.79,-0.17,0.55,0.45,-0.46,-0.52,1.44,-0.25,-1.12
18,48,32,474093,-0.48,-9.79,-0.64,-0.17,0.00,-0.48,-0.30,-9.80,-0.15,0.55,0.45,-0.46,-0.53,1.12,-0.13,0.75
18,48,32,995089,-0.11,-9.82,-0.27,0.13,-0.02,-0.18,-0.24,-9.80,-0.09,0.55,0.45,-0.46,-0.53,3.25,-1.75,0.62
18,48,33,517093,-0.02,-9.73,0.23,0.20,0.06,0.14,-0.23,-9.80,0.08,0.54,0.45,-0.47,-0.53,1.31,-0.69,0.25
18,48,34,34036,-0.18,-9.84,-0.52,0.05,-0.04,-0.55,-0.24,-9.80,0.02,0.54,0.45,-0.47,-0.53,-0.81,0.44,1.62
18,48,34,560093,0.04,-9.74,0.14,0.33,0.06,0.14,-0.28,-9.80,0.00,0.54,0.45,-0.47,-0.53,2.81,0.25,-1.31
18,48,35,83094,-0.03,-2.05,0.17,-0.06,0.04,0.04,-0.25,-9.80,0.09,0.52,0.48,-0.50,-0.51,-0.19,-12.81,1.06
18,48,35,602094,-0.12,-9.82,0.17,0.17,-0.02,0.10,-0.29,-9.80,0.06,0.51,0.49,-0.51,-0.50,0.56,0.00,0.81
18,48,36,125092,-0.30,-9.81,-0.02,0.02,-0.02,-0.05,-0.36,-9.79,-0.01,0.51,0.49,-0.50,-0.49,1.75,-0.31,-0.88
18,48,36,645093,-0.27,-9.80,-0.30,0.09,0.00,-0.31,-0.37,-9.79,0.00,0.51,0.49,-0.51,-0.49,0.44,-0.06,1.00
18,48,37,166093,0.00,-9.78,-0.09,0.35,0.01,-0.06,-0.35,-9.80,-0.03,0.51,0.49,-0.51,-0.49,0.75,0.13,0.56
18,48,37,687093,-0.58,-7.22,-0.01,0.00,0.00,0.00,0.00,0.00,0.00,0.00,0.00,0.00,0.00,0.00,0.00,0.00
18,48,38,270095,0.00,0.00,0.00,0.00,0.00,0.00,-0.33,-9.80,-0.04,0.51,0.49,-0.51,-0.49,0.25,-0.13,1.44
18,48,38,817092,-0.32,-9.84,-0.33,0.07,-0.01,-0.19,-0.36,-9.79,-0.10,0.51,0.49,-0.51,-0.49,0.50,0.00,0.00
18,48,39,336093,-0.33,-9.79,-0.26,0.01,0.00,-0.11,-0.34,-9.79,-0.15,0.51,0.50,-0.50,-0.49,0.37,-0.13,0.56
18,48,39,856183,-0.42,-9.76,-0.20,-0.15,0.03,-0.02,-0.27,-9.80,-0.18,0.51,0.50,-0.50,-0.49,1.75,-0.19,1.12
18,48,40,374093,-0.43,-9.78,-0.29,-0.23,0.05,-0.22,-0.29,-9.80,-0.17,0.51,0.50,-0.50,-0.49,0.81,-0.06,0.50
18,48,40,895093,-0.11,-9.80,-0.07,0.09,-0.03,-0.02,-0.29,-9.80,-0.15,0.51,0.50,-0.50,-0.49,-0.31,-0.25,0.19
18,48,41,420093,-0.05,-9.82,-0.34,0.22,-0.02,-0.12,-0.27,-9.80,-0.22,0.51,0.50,-0.50,-0.49,0.56,-0.19,-0.06
18,48,41,938093,0.00,0.00,0.00,0.00,0.00,0.00,0.00,0.00,0.00,0.51,0.50,-0.50,-0.49,0.37,-0.06,0.88
18,48,42,505093,0.00,0.00,0.00,0.00,0.00,0.00,0.00,0.00,0.00,0.00,0.00,0.00,0.00,0.00,0.00,0.00
18,48,43,107093,0.16,-9.80,-0.41,0.55,-0.01,-0.19,-0.39,-9.79,-0.21,0.52,0.50,-0.50,-0.48,-0.13,-0.25,1.06
18,48,43,625093,-0.27,-9.79,-0.38,0.12,0.00,-0.18,-0.40,-9.79,-0.20,0.52,0.49,-0.50,-0.48,0.69,-0.06,0.06
18,48,44,149093,-0.16,-9.76,-0.16,0.20,0.01,0.00,-0.36,-9.79,-0.20,0.51,0.50,-0.50,-0.49,0.44,-0.13,0.81
18,48,44,668092,-0.31,-9.75,-0.31,0.06,0.03,-0.11,-0.38,-9.79,-0.20,0.52,0.49,-0.50,-0.49,1.19,-0.13,0.50
18,48,45,187092,-0.39,-9.80,-0.09,-0.02,-0.01,0.10,-0.36,-9.79,-0.19,0.51,0.49,-0.50,-0.49,0.75,0.06,0.50
18,48,45,705090,-0.17,-9.76,-0.44,0.19,0.03,-0.24,-0.36,-9.79,-0.20,0.52,0.49,-0.50,-0.49,0.31,0.06,-0.25
18,48,46,224037,-0.27,-9.76,-0.38,0.04,0.03,-0.16,-0.32,-9.79,-0.22,0.51,0.50,-0.50,-0.49,0.94,-0.06,0.31
18,48,46,748094,-0.38,-9.77,-0.40,-0.03,0.02,-0.20,-0.34,-9.79,-0.19,0.51,0.50,-0.50,-0.49,1.12,-0.06,0.06
18,48,47,270092,-0.28,-9.78,-0.20,0.04,0.01,-0.06,-0.33,-9.79,-0.13,0.51,0.49,-0.50,-0.49,0.62,-0.06,0.25
18,48,47,790093,-0.27,-9.80,-0.14,0.05,0.00,0.01,-0.33,-9.79,-0.15,0.51,0.49,-0.50,-0.49,0.44,0.00,-0.50
18,48,48,310092,0.00,0.00,0.00,0.00,0.00,0.00,-0.31,-9.79,-0.19,0.51,0.50,-0.50,-0.49,1.19,0.00,0.44
18,48,48,864073,-0.25,-9.86,-0.49,0.06,-0.06,-0.27,-0.31,-9.79,-0.21,0.51,0.50,-0.50,-0.49,0.31,-0.06,-0.13
18,48,49,387094,-0.47,-9.85,-0.29,-0.16,-0.05,-0.06,-0.30,-9.79,-0.22,0.51,0.50,-0.50,-0.49,0.75,0.06,1.19
18,48,49,907067,-0.58,-9.75,-0.28,-0.25,0.04,-0.05,-0.33,-9.79,-0.22,0.52,0.50,-0.50,-0.49,1.06,0.00,-0.06
18,48,50,428064,-0.18,-9.81,-0.33,0.13,-0.01,-0.16,-0.32,-9.79,-0.17,0.51,0.49,-0.50,-0.49,0.88,0.81,-0.06
18,48,50,948045,-0.06,-9.78,-0.38,0.24,0.01,-0.16,-0.31,-9.79,-0.22,0.51,0.50,-0.50,-0.49,0.56,0.00,-0.50
18,48,51,493070,-0.19,-9.75,-0.44,0.11,0.03,-0.19,-0.31,-9.79,-0.24,0.52,0.50,-0.50,-0.49,0.25,0.06,-0.31
18,48,52,11098,-0.31,-9.84,-0.18,0.00,-0.04,0.06,-0.32,-9.79,-0.24,0.52,0.50,-0.50,-0.49,0.50,0.06,0.62
18,48,52,532092,-0.39,-9.80,-0.38,-0.09,0.00,-0.10,-0.30,-9.79,-0.28,0.52,0.50,-0.50,-0.49,0.56,0.00,0.56
18,48,53,53089,-0.03,-9.82,-0.10,0.22,-0.02,0.16,-0.25,-9.79,-0.27,0.51,0.50,-0.50,-0.49,0.44,0.06,1.31
18,48,53,571087,-0.27,-9.77,-0.13,0.00,0.01,0.16,-0.28,-9.79,-0.30,0.52,0.50,-0.50,-0.49,1.25,0.13,0.62
18,48,54,94086,0.00,0.00,0.00,0.00,0.00,0.00,0.00,0.00,0.00,0.00,0.00,0.00,0.00,0.69,0.06,0.50
18,48,54,678091,-0.56,-9.81,-0.58,-0.24,-0.01,-0.28,-0.31,-9.79,-0.29,0.52,0.50,-0.50,-0.49,1.37,-0.13,0.00
18,48,55,198086,-0.08,-9.78,-0.30,0.23,0.00,-0.10,-0.32,-9.79,-0.25,0.52,0.50,-0.50,-0.49,1.00,0.00,-0.25
18,48,55,764044,0.18,-9.83,-0.58,0.24,0.00,-0.30,-0.10,-9.80,-0.27,0.51,0.50,-0.49,-0.49,0.37,-0.13,0.88
18,48,56,444542,-0.25,-9.86,-0.20,-0.07,-0.05,0.05,-0.15,-9.80,-0.23,0.51,0.50,-0.50,-0.49,0.62,-0.06,-0.37
18,48,56,972090,0.00,0.00,0.00,0.00,0.00,0.00,0.00,0.00,0.00,0.00,0.00,0.00,0.00,1.62,0.37,-0.13
18,48,57,560093,-0.07,-9.85,-0.12,0.06,-0.05,-0.06,-0.13,-9.80,-0.06,0.51,0.50,-0.50,-0.50,0.94,0.13,1.19
18,48,58,82093,0.00,0.00,0.00,0.00,0.00,0.00,0.00,0.00,0.00,0.00,0.00,0.00,0.00,0.00,0.00,0.00
18,48,58,687093,0.00,0.00,0.00,0.00,0.00,0.00,0.00,0.00,0.00,0.00,0.00,0.00,0.00,0.00,0.00,0.00
18,48,59,290091,0.13,-10.05,-0.49,0.44,-0.25,-0.35,-0.30,-9.80,-0.14,0.51,0.49,-0.50,-0.49,0.13,0.06,2.12
18,48,59,813091,-0.15,-9.77,-1.35,0.18,0.02,-1.14,-0.33,-9.79,-0.21,0.52,0.50,-0.50,-0.49,-0.44,-0.06,0.50
18,49,0,333093,-0.12,-9.75,-0.27,0.15,0.04,-0.09,-0.27,-9.80,-0.17,0.51,0.50,-0.50,-0.49,1.56,-0.25,-0.75
18,49,0,851092,-0.23,-9.80,-0.08,0.02,0.00,0.03,-0.26,-9.80,-0.12,0.51,0.49,-0.50,-0.49,1.12,-0.19,0.94
18,49,1,370090,0.00,-9.80,-1.00,0.30,0.01,-0.84,-0.23,-9.80,-0.17,0.51,0.50,-0.50,-0.49,-0.19,-0.06,0.50
18,49,1,890062,0.03,-9.84,-0.42,0.24,-0.03,-0.24,-0.21,-9.80,-0.18,0.51,0.50,-0.50,-0.49,-0.56,-0.37,0.62
18,49,2,415074,0.00,0.00,0.00,0.00,0.00,0.00,0.00,0.00,0.00,0.51,0.50,-0.50,-0.49,-1.81,0.13,0.94
18,49,2,982093,-0.40,-9.73,0.11,-0.16,0.06,0.41,-0.24,-9.79,-0.30,0.52,0.50,-0.50,-0.49,0.75,1.12,0.44
18,49,3,504095,0.81,-10.27,-0.38,1.08,-0.47,-0.15,-0.27,-9.80,-0.22,0.51,0.50,-0.50,-0.49,0.75,-0.88,2.31
18,49,4,25093,-0.42,-9.88,-0.15,-0.11,-0.08,-0.01,-0.31,-9.80,-0.13,0.51,0.49,-0.50,-0.49,0.94,0.06,0.31
18,49,4,546090,-0.74,-10.00,-0.22,-0.40,-0.20,-0.12,-0.34,-9.79,-0.09,0.51,0.49,-0.51,-0.49,0.50,0.37,-1.12
18,49,5,68093,1.44,-9.48,-0.38,1.81,0.31,-0.31,-0.36,-9.79,-0.06,0.51,0.49,-0.51,-0.49,0.56,-0.13,-0.13
18,49,5,588090,-0.14,-9.85,-0.28,0.07,0.00,-0.36,-0.35,-9.80,-0.01,0.51,0.49,-0.51,-0.49,-0.06,-0.06,0.13
18,49,6,108087,-0.01,-9.74,0.03,0.30,0.06,0.02,-0.32,-9.80,0.01,0.51,0.49,-0.51,-0.49,-0.06,0.44,-0.56
18,49,6,628092,-0.07,-9.82,-0.19,0.24,-0.02,-0.25,-0.31,-9.80,0.05,0.51,0.49,-0.51,-0.50,0.62,0.13,-0.81
18,49,7,149095,-0.84,-9.83,-0.16,-0.50,-0.03,-0.16,-0.33,-9.80,0.00,0.51,0.49,-0.51,-0.49,1.25,-0.25,0.25
18,49,7,672090,-0.07,-9.84,-0.33,0.17,-0.03,-0.32,-0.25,-9.80,-0.01,0.51,0.49,-0.50,-0.49,-0.31,-0.25,1.25
18,49,8,193093,-0.23,-9.78,-0.38,0.07,0.01,-0.30,-0.31,-9.80,-0.07,0.51,0.49,-0.50,-0.49,1.69,0.06,-0.25
18,49,8,712661,-0.21,-9.81,-0.38,0.07,-0.01,-0.26,-0.28,-9.80,-0.12,0.51,0.49,-0.50,-0.49,-0.25,-0.31,0.19
18,49,9,236084,-0.10,-9.78,0.12,0.15,0.01,0.19,-0.26,-9.80,-0.07,0.51,0.49,-0.50,-0.49,1.81,-0.06,-0.19
18,49,9,793045,-0.65,-9.90,-0.70,-0.44,-0.09,-0.63,-0.21,-9.80,-0.07,0.51,0.49,-0.50,-0.49,-0.81,-0.13,2.75
18,49,10,432085,-0.39,-9.85,-0.80,-0.18,-0.05,-0.78,-0.21,-9.80,-0.02,0.51,0.49,-0.50,-0.50,-0.06,-0.19,-0.13
18,49,10,953063,-0.74,-9.78,-0.04,-0.44,0.01,-0.06,-0.29,-9.80,0.01,0.51,0.49,-0.51,-0.49,0.88,-0.88,1.62
18,49,11,472092,0.17,-9.66,-0.38,0.41,0.13,-0.38,-0.22,-9.80,-0.01,0.51,0.49,-0.50,-0.50,-0.62,0.00,-1.50
18,49,11,992092,0.08,-9.85,-0.86,0.26,-0.04,-0.74,-0.17,-9.80,-0.11,0.51,0.50,-0.50,-0.49,0.75,-0.13,-1.25
18,49,12,513092,-0.27,-9.86,-0.30,-0.11,-0.05,-0.21,-0.15,-9.80,-0.08,0.51,0.50,-0.50,-0.50,-0.06,0.06,0.13
18,49,13,42091,-0.36,-9.81,-0.47,-0.18,0.00,-0.38,-0.18,-9.80,-0.09,0.51,0.50,-0.50,-0.50,-0.88,0.37,-0.44
18,49,13,561089,-0.41,-9.68,-0.20,-0.23,0.11,-0.13,-0.17,-9.80,-0.07,0.51,0.50,-0.50,-0.50,-0.81,0.00,1.25
18,49,14,81065,0.00,0.00,0.00,0.00,0.00,0.00,0.00,0.00,0.00,0.00,0.00,0.00,0.00,0.00,0.00,0.00
18,49,14,778092,0.00,0.00,0.00,0.00,0.00,0.00,0.00,0.00,0.00,0.00,0.00,0.00,0.00,0.37,-0.13,-0.69
18,49,15,363085,-0.20,-9.80,-0.49,-0.03,0.00,-0.34,-0.16,-9.80,-0.15,0.51,0.50,-0.50,-0.49,0.19,-0.13,0.88
18,49,15,902063,0.35,-9.80,-0.27,0.55,0.00,-0.12,-0.20,-9.80,-0.14,0.51,0.50,-0.50,-0.49,-1.12,-0.19,1.50
18,49,16,421067,-0.60,-9.82,-0.31,-0.27,-0.02,-0.10,-0.32,-9.79,-0.21,0.52,0.49,-0.50,-0.49,0.88,-0.37,0.44
18,49,16,943066,-0.27,-9.78,-0.38,0.02,0.01,-0.17,-0.30,-9.79,-0.21,0.52,0.49,-0.50,-0.49,0.69,0.06,0.25
18,49,17,464063,-0.20,-9.81,-0.39,0.08,-0.01,-0.16,-0.29,-9.79,-0.22,0.52,0.50,-0.50,-0.49,0.81,0.06,0.44
18,49,17,987067,0.00,0.00,0.00,0.00,0.00,0.00,0.00,0.00,0.00,0.52,0.50,-0.50,-0.49,0.69,0.06,-0.19
18,49,18,553092,-0.13,-9.81,-0.26,0.19,-0.02,-0.07,-0.31,-9.79,-0.21,0.52,0.49,-0.50,-0.49,0.88,-0.19,-0.19
18,49,19,73093,-0.23,-9.79,-0.25,0.06,0.00,-0.03,-0.30,-9.79,-0.21,0.52,0.50,-0.50,-0.49,0.37,0.06,0.13
18,49,19,593091,0.00,0.00,0.00,0.09,-0.03,-0.11,-0.29,-9.79,-0.22,0.52,0.50,-0.50,-0.49,0.62,0.00,0.25
18,49,20,184084,-0.46,-9.78,-0.16,-0.16,0.01,0.07,-0.29,-9.79,-0.23,0.52,0.50,-0.50,-0.49,0.13,-0.13,0.25
18,49,20,798085,-0.17,-9.81,-0.33,0.12,-0.03,-0.09,-0.30,-9.79,-0.25,0.52,0.50,-0.50,-0.49,0.88,0.00,-0.44
18,49,21,410081,-0.15,-9.83,-0.41,0.06,-0.03,-0.14,-0.26,-9.79,-0.26,0.52,0.50,-0.50,-0.49,0.75,0.06,0.81
18,49,22,34045,-0.47,-9.83,-0.38,-0.19,-0.03,-0.13,-0.28,-9.79,-0.24,0.52,0.50,-0.50,-0.49,0.81,0.00,0.37
18,49,22,723028,-0.34,-9.76,-0.14,-0.09,0.03,-0.02,-0.25,-9.80,-0.12,0.51,0.49,-0.50,-0.49,-1.06,0.31,0.50
18,49,23,288085,0.02,-9.82,-0.19,0.19,-0.02,-0.02,-0.17,-9.80,-0.17,0.51,0.50,-0.50,-0.49,-0.19,-0.13,0.75
18,49,23,815072,-0.21,-9.82,-0.21,-0.02,0.00,0.00,-0.19,-9.80,-0.19,0.51,0.50,-0.50,-0.49,0.06,0.13,0.44
18,49,24,335065,-0.19,-9.80,-0.32,0.00,0.00,-0.11,-0.20,-9.80,-0.21,0.51,0.50,-0.50,-0.49,0.31,0.19,0.13
18,49,24,855064,-0.25,-9.81,-0.15,-0.05,-0.01,0.07,-0.19,-9.80,-0.22,0.51,0.50,-0.50,-0.49,0.31,-0.06,0.50
18,49,25,377063,0.00,0.00,0.00,0.00,0.00,0.00,-0.19,-9.80,-0.22,0.51,0.50,-0.50,-0.49,0.06,0.19,0.37
18,49,25,925091,-0.18,-9.81,-0.36,0.01,-0.01,-0.13,-0.20,-9.80,-0.23,0.51,0.50,-0.50,-0.49,-0.25,0.06,0.25
18,49,26,448093,0.00,0.00,0.00,0.00,0.00,0.00,0.00,0.00,0.00,0.51,0.50,-0.50,-0.49,-0.44,0.13,-0.13
18,49,27,22092,0.00,0.00,0.00,-0.24,0.03,-0.05,-0.26,-9.80,-0.24,0.52,0.50,-0.50,-0.49,0.19,0.00,1.25
18,49,27,551087,0.02,-9.78,0.01,0.22,0.01,0.28,-0.19,-9.80,-0.26,0.52,0.50,-0.49,-0.49,1.62,0.00,-1.00
18,49,28,162083,-0.13,-9.82,-0.35,0.04,-0.02,-0.11,-0.17,-9.80,-0.24,0.51,0.50,-0.50,-0.49,0.37,0.00,0.31
18,49,28,715088,-0.32,-9.79,-0.19,-0.18,-0.02,0.03,-0.19,-9.80,-0.22,0.51,0.50,-0.50,-0.49,0.94,0.06,-0.13
18,49,29,238091,0.09,-9.82,-0.42,0.30,0.00,-0.20,-0.17,-9.80,-0.19,0.51,0.50,-0.50,-0.49,0.00,0.19,0.06
18,49,29,758067,-0.23,-9.89,-0.35,0.02,-0.09,-0.12,-0.25,-9.80,-0.22,0.52,0.50,-0.50,-0.49,-1.25,-0.06,0.44
18,49,30,278063,0.00,-9.78,-0.27,0.26,0.01,-0.02,-0.26,-9.79,-0.24,0.52,0.50,-0.50,-0.49,-0.50,0.13,0.50
18,49,30,799063,-0.40,-9.84,-0.17,-0.13,-0.04,0.08,-0.26,-9.79,-0.25,0.52,0.50,-0.50,-0.49,0.31,-0.06,0.37
18,49,31,321066,-0.67,-9.79,-0.39,-0.40,0.00,-0.14,-0.26,-9.79,-0.24,0.52,0.50,-0.50,-0.49,0.25,0.13,-0.13
18,49,31,851089,-0.32,-9.78,-0.12,-0.06,0.01,0.11,-0.25,-9.80,-0.23,0.52,0.50,-0.50,-0.49,0.81,-0.06,-0.62
18,49,32,375087,-0.85,-9.70,0.35,-0.57,0.09,0.59,-0.27,-9.79,-0.24,0.52,0.50,-0.50,-0.49,-4.31,-0.19,2.44
18,49,32,894089,-0.26,-9.83,-0.07,0.00,-0.04,0.35,-0.26,-9.79,-0.43,0.52,0.50,-0.49,-0.49,1.06,0.06,-3.00
18,49,33,413089,-0.55,-9.89,-0.69,-0.46,-0.10,-0.17,-0.09,-9.79,-0.53,0.52,0.51,-0.49,-0.49,-4.62,-1.62,-2.94
18,49,33,940089,0.00,0.00,0.00,0.00,0.00,0.00,0.00,0.00,0.00,0.00,0.00,0.00,0.00,-2.56,-0.31,-3.06
18,49,34,524089,0.80,-9.75,-0.87,0.27,0.00,-0.02,0.52,-9.75,-0.85,0.51,0.54,-0.46,-0.49,-1.50,0.25,-2.94
18,49,35,43092,1.01,-9.71,-0.91,0.28,0.03,-0.08,0.73,-9.74,-0.83,0.50,0.54,-0.46,-0.50,-0.31,-0.31,2.69
18,49,35,563092,-0.39,-9.85,-0.97,-0.62,-0.04,-0.26,0.30,-9.76,-0.79,0.51,0.53,-0.47,-0.49,1.44,0.06,-0.56
18,49,36,82089,-0.28,-9.99,-1.45,-0.77,-0.23,-0.75,0.49,-9.76,-0.70,0.50,0.53,-0.47,-0.49,4.62,0.94,-8.00
18,49,36,616089,1.16,-9.78,-0.64,0.13,-0.03,-0.51,1.04,-9.75,-0.11,0.45,0.55,-0.50,-0.50,6.56,-6.69,-6.81
18,49,37,137035,2.73,-9.23,-0.17,1.23,0.43,-0.76,1.49,-9.67,0.59,0.34,0.60,-0.57,-0.45,24.12,-50.19,-3.75
18,49,37,657088,2.71,-8.70,3.03,0.26,0.69,1.65,2.44,-9.39,1.38,0.18,0.63,-0.65,-0.39,3.50,-20.88,-12.37
18,49,38,179091,3.98,-8.93,1.60,0.39,0.15,0.73,3.58,-9.08,0.86,0.06,0.67,-0.66,-0.33,2.62,-34.00,-11.12
18,49,38,701092,5.46,-5.83,-0.60,0.53,2.50,-2.10,4.93,-8.34,1.50,0.05,0.65,-0.62,-0.44,4.19,-27.81,-29.37
18,49,39,224090,7.34,-7.71,1.62,0.43,-1.02,-0.29,6.91,-6.68,1.92,-0.06,0.63,-0.59,-0.50,7.06,3.31,-18.00
18,49,39,746091,0.00,0.00,0.00,0.00,0.00,0.00,0.00,0.00,0.00,0.00,0.00,0.00,0.00,0.00,0.00,0.00
18,49,40,349091,6.65,-3.26,6.47,-0.34,0.34,0.63,7.00,-3.61,5.83,-0.11,0.44,-0.59,-0.67,-4.62,38.38,8.56
18,49,40,867095,5.94,-3.71,5.58,-1.33,-0.77,-0.29,7.27,-2.94,5.87,-0.14,0.42,-0.58,-0.68,11.88,-40.56,-12.31
18,49,41,386090,2.37,-2.90,-1.28,-1.41,-1.01,0.55,6.76,-1.46,6.94,-0.18,0.34,-0.59,-0.71,14.94,-15.44,-8.94
18,49,41,909086,6.46,-0.61,5.40,-1.02,0.29,-0.86,7.48,-0.91,6.26,-0.23,0.36,-0.57,-0.70,-0.94,-5.87,-4.87
18,49,42,428093,8.39,0.11,7.93,1.96,0.50,0.54,6.43,-0.38,7.38,-0.19,0.30,-0.55,-0.76,-8.25,12.50,-7.19
18,49,42,949093,4.53,-1.28,7.36,-0.72,-0.39,-0.86,5.26,-0.89,8.22,-0.13,0.25,-0.57,-0.77,0.00,5.00,11.94
18,49,43,470093,4.99,-0.92,8.41,-0.52,0.12,0.37,5.51,-1.04,8.03,-0.14,0.26,-0.61,-0.74,-5.44,-4.12,8.00
18,49,43,988091,3.53,-0.94,12.37,-0.09,-0.28,1.95,3.40,-0.57,9.17,-0.08,0.16,-0.59,-0.79,-12.50,-21.94,-15.00
18,49,44,514095,4.11,-0.27,9.30,0.72,0.34,0.11,3.38,-0.62,9.18,-0.07,0.16,-0.54,-0.82,9.38,7.37,-12.13
18,49,45,32095,5.02,-1.18,6.07,-0.94,0.14,-1.59,5.96,-1.32,7.66,-0.12,0.31,-0.53,-0.78,-2.87,-29.37,-3.00
18,49,45,550090,4.86,-1.37,7.05,-0.18,-0.08,-1.24,5.04,-1.29,8.30,-0.08,0.26,-0.50,-0.82,-13.44,-15.63,3.25
18,49,46,75089,6.18,-0.60,9.19,1.02,0.54,0.93,5.16,-1.15,8.25,-0.09,0.27,-0.50,-0.82,-13.19,-17.19,16.31
18,49,46,593090,6.62,-0.75,8.83,0.62,0.13,1.12,5.99,-0.88,7.70,-0.13,0.30,-0.51,-0.80,-1.75,-5.94,-3.31
18,49,47,118090,5.90,-0.84,8.71,0.71,-0.16,0.42,5.19,-0.68,8.29,-0.12,0.25,-0.53,-0.80,16.44,9.75,6.50
18,49,47,638090,4.32,-1.28,6.75,-1.00,0.04,-1.36,5.33,-1.32,8.12,-0.11,0.27,-0.57,-0.77,0.31,21.81,0.31
18,49,48,158092,3.87,-1.02,7.23,-0.44,0.12,-1.49,4.31,-1.14,-0.01,0.00,0.00,0.00,0.00,0.00,0.00,0.00
18,49,48,712089,3.00,-0.37,7.23,-1.67,0.97,-1.27,4.67,-1.35,8.51,-0.11,0.23,-0.63,-0.73,-0.56,-30.19,14.50
18,49,49,234091,6.83,0.45,9.35,2.17,1.55,0.79,4.65,-1.09,8.56,-0.11,0.23,-0.62,-0.75,-8.81,8.31,-2.37
18,49,49,754092,6.12,-0.89,11.53,1.75,-0.01,2.79,4.37,-0.88,8.73,-0.11,0.21,-0.62,-0.75,7.12,7.06,-1.31
18,49,50,274095,5.12,-0.53,9.38,-0.11,0.29,1.07,5.13,-0.82,8.31,-0.13,0.24,-0.59,-0.76,11.25,5.50,-24.06
18,49,50,799092,3.76,-0.94,8.08,-0.50,0.17,-0.66,4.27,-1.12,8.75,-0.08,0.22,-0.57,-0.79,15.38,-3.44,-6.69
18,49,51,317091,2.20,-1.07,7.35,-1.42,0.29,-1.65,3.64,-1.36,9.00,-0.05,0.20,-0.56,-0.81,-4.37,-8.94,-9.44
18,49,51,837091,5.04,-0.03,9.60,1.49,0.97,0.52,3.54,-1.01,9.08,-0.05,0.18,-0.53,-0.83,-14.38,-9.88,9.81
18,49,52,363093,5.47,-0.32,10.90,1.02,0.54,2.21,4.46,-0.89,8.68,-0.10,0.22,-0.56,-0.80,-5.44,-11.19,15.44
18,49,52,882092,0.00,0.00,0.00,0.00,0.00,0.00,0.00,0.00,0.00,0.00,0.00,0.00,0.00,4.25,6.50,8.31
18,49,53,466089,5.66,-0.75,9.53,1.08,0.51,0.95,4.57,-1.27,8.57,-0.11,0.23,-0.63,-0.74,2.19,13.25,5.62
18,49,53,984082,3.54,-1.38,7.43,-1.00,0.14,-1.12,4.54,-1.52,8.55,-0.10,0.23,-0.63,-0.73,-2.44,18.81,-5.12
18,49,54,506093,3.08,-0.77,6.79,-1.11,0.47,-1.98,4.20,-1.25,8.77,-0.09,0.21,-0.61,-0.76,-6.75,6.31,-1.56
18,49,55,29095,4.44,0.33,9.08,0.33,1.23,0.22,4.10,-0.89,8.86,-0.09,0.20,-0.59,-0.77,-15.50,-35.13,5.87
18,49,55,556095,4.11,0.31,7.90,0.09,1.24,0.06,4.47,-0.97,8.66,-0.10,0.22,-0.58,-0.78,4.25,1.62,-11.50
18,49,56,75093,5.94,-0.48,13.24,1.99,0.24,4.30,3.95,-0.73,8.94,-0.09,0.19,-0.58,-0.78,15.44,13.50,5.56
18,49,56,593090,4.22,0.11,8.52,-0.72,1.49,0.17,4.94,-1.37,8.35,-0.11,0.25,-0.60,-0.75,13.62,-42.69,-9.63
18,49,57,113090,4.78,-0.78,6.99,0.01,0.46,-1.12,4.88,-1.17,8.41,-0.11,0.24,-0.59,-0.76,25.31,-6.50,-2.62
18,49,57,633824,2.62,-1.17,5.71,-1.83,0.18,-3.02,4.37,-1.43,8.65,-0.09,0.22,-0.63,-0.74,-3.37,-1.12,11.44
18,49,58,156092,0.00,0.00,0.00,-1.28,0.19,-1.89,3.96,-1.42,8.85,-0.07,0.20,-0.63,-0.75,-17.37,50.63,7.06
18,49,58,686091,5.41,-0.05,14.39,1.61,0.93,5.40,3.80,-0.98,8.98,-0.09,0.18,-0.64,-0.74,2.50,-1.62,6.06
18,49,59,205091,4.38,-0.75,10.30,0.07,0.17,1.54,4.31,-0.93,8.75,-0.10,0.21,-0.61,-0.75,14.56,21.75,-23.00
18,49,59,726093,4.21,-1.40,7.40,-0.11,-0.01,-1.28,4.33,-1.39,8.68,-0.08,0.22,-0.60,-0.76,24.94,-28.75,-7.87
18,50,0,244093,2.58,-1.38,5.64,-1.20,0.29,-3.24,3.78,-1.68,8.88,-0.05,0.21,-0.60,-0.77,8.13,-16.62,-9.56
18,50,0,763087,2.11,-0.31,6.84,-1.42,1.40,-2.13,3.54,-1.71,8.98,-0.04,0.20,-0.61,-0.77,-2.62,-19.37,8.63
18,50,1,285095,4.15,0.26,11.69,0.38,1.53,2.73,3.76,-1.26,8.96,-0.07,0.19,-0.62,-0.75,-0.56,5.62,2.50
18,50,1,804091,5.61,-0.68,10.32,1.15,0.52,1.21,4.08,-1.10,8.84,-0.09,0.20,-0.62,-0.76,0.25,28.50,-0.31
18,50,2,327093,6.91,-0.24,15.77,2.97,0.93,6.87,3.94,-1.17,8.90,-0.08,0.20,-0.62,-0.75,-5.62,42.75,1.31
18,50,2,846091,4.55,-1.54,9.48,0.05,-0.04,0.90,4.49,-1.49,8.58,-0.08,0.23,-0.59,-0.77,8.00,17.19,-16.19
18,50,3,364093,4.91,-1.10,8.97,1.02,0.40,0.09,3.88,-1.50,8.87,-0.05,0.21,-0.56,-0.80,3.56,-2.37,-6.75
18,50,3,885093,2.86,-1.83,6.88,-1.45,0.15,-1.69,4.31,-1.98,8.57,-0.05,0.25,-0.57,-0.79,6.44,-22.75,1.06
18,50,4,405091,1.97,-1.64,6.34,-1.50,0.11,-2.71,3.48,-1.86,8.97,-0.03,0.20,-0.57,-0.80,-9.00,-4.62,3.50
18,50,4,936093,1.91,-1.04,5.40,-1.60,0.72,-3.67,3.67,-1.93,8.88,-0.03,0.21,-0.58,-0.78,-17.37,-13.50,7.12
18,50,5,455092,2.76,-0.32,8.53,-0.78,1.43,-0.43,3.55,-1.75,8.97,-0.04,0.20,-0.58,-0.79,-26.81,21.31,6.62
18,50,5,973092,3.82,0.42,10.57,0.00,2.02,1.69,3.82,-1.59,8.88,-0.05,0.21,-0.58,-0.79,-21.56,-1.50,11.56
18,50,6,492091,5.57,0.22,11.08,1.37,1.75,2.32,4.26,-1.38,8.71,-0.07,0.22,-0.58,-0.78,-9.44,-0.56,3.62
18,50,7,11085,0.00,0.00,0.00,0.00,0.00,0.00,3.72,-1.30,8.97,-0.06,0.20,-0.58,-0.79,-11.00,10.50,2.00
18,50,7,598092,0.00,0.00,0.00,0.00,0.00,0.00,0.00,0.00,0.00,0.00,0.00,0.00,0.00,0.00,0.00,0.00
18,50,8,213792,6.50,-0.65,13.20,2.11,0.87,4.57,4.38,-1.52,8.63,-0.06,0.24,-0.55,-0.80,-5.19,2.81,12.13
18,50,8,729039,6.34,-0.76,10.44,0.98,0.95,2.41,5.36,-1.71,8.02,-0.09,0.29,-0.55,-0.78,4.25,14.50,-8.63
18,50,9,262942,4.51,-1.65,7.30,0.09,0.23,-1.23,4.40,-1.89,8.55,-0.05,0.25,-0.56,-0.79,2.25,10.44,8.63
18,50,9,782192,2.63,-0.91,6.71,-1.59,1.16,-1.88,4.22,-2.07,8.60,-0.05,0.25,-0.59,-0.77,-6.00,-22.81,-4.62
18,50,10,306065,2.28,-1.01,5.74,-1.86,1.25,-2.84,4.10,-2.29,8.60,-0.03,0.25,-0.56,-0.79,-14.69,31.00,7.06
18,50,10,827062,2.58,-0.26,7.71,-1.41,1.73,-1.01,3.99,-1.99,8.72,-0.04,0.23,-0.56,-0.79,-26.62,23.06,1.56
18,50,11,345085,6.03,0.26,10.07,1.41,2.13,1.62,4.61,-1.87,8.44,-0.05,0.26,-0.51,-0.82,-21.00,-18.25,-2.25
18,50,11,864066,4.42,-0.12,12.81,0.53,1.30,3.92,3.89,-1.43,8.88,-0.04,0.21,-0.50,-0.84,-2.81,-3.69,5.12
18,50,12,387087,4.19,-0.72,11.79,0.13,0.92,3.01,4.05,-1.64,8.77,-0.03,0.23,-0.48,-0.85,-3.87,4.75,-3.69
18,50,12,910090,5.23,-0.99,8.16,0.99,0.96,0.33,4.46,-1.93,8.51,-0.03,0.26,-0.49,-0.83,17.31,-7.06,4.50
18,50,13,429091,3.03,-1.17,7.32,-1.53,0.98,-1.07,4.61,-2.14,8.38,-0.04,0.27,-0.53,-0.81,14.50,-31.12,2.12
18,50,13,950092,3.98,-1.03,6.11,-1.04,1.18,-2.00,5.02,-2.21,8.12,-0.06,0.29,-0.56,-0.77,11.25,1.06,4.31
18,50,14,468090,3.29,-0.79,6.26,-1.68,1.43,-1.87,4.98,-2.22,8.14,-0.06,0.28,-0.57,-0.77,10.13,4.94,-11.31
18,50,14,988089,3.51,-0.85,6.35,-0.45,1.39,-2.32,3.99,-2.25,8.66,-0.03,0.24,-0.57,-0.79,10.38,35.56,-2.12
18,50,15,513090,0.00,0.00,0.00,0.00,0.00,0.00,0.00,0.00,0.00,0.00,0.00,0.00,0.00,10.50,-46.69,-5.94
18,50,16,97092,0.00,0.00,0.00,0.00,0.00,0.00,0.00,0.00,0.00,0.00,0.00,0.00,0.00,0.00,0.00,0.00
18,50,16,700086,3.32,-1.11,9.15,-0.65,1.20,0.49,3.97,-2.31,8.66,-0.02,0.24,-0.55,-0.80,1.50,-19.25,-9.94
18,50,17,220093,2.48,-1.46,6.16,-1.26,1.41,-2.42,3.74,-2.87,8.59,0.02,0.25,-0.51,-0.82,-10.06,19.56,-3.50
18,50,17,739091,1.50,-0.46,7.70,-2.13,2.29,-1.23,3.56,-2.74,8.71,0.03,0.23,-0.50,-0.83,-15.25,-8.94,1.50
18,50,18,260091,6.12,0.55,11.33,1.62,2.45,2.83,4.49,-1.90,8.50,-0.03,0.26,-0.49,-0.83,-4.94,-4.50,2.25
18,50,18,778093,1.78,-0.21,10.49,-2.06,1.62,1.66,3.84,-1.84,8.83,-0.02,0.22,-0.51,-0.83,0.19,17.25,12.88
18,50,19,299091,6.73,-0.86,11.55,1.73,1.29,3.39,4.99,-2.15,8.16,-0.05,0.29,-0.53,-0.80,7.75,33.31,-10.31
18,50,19,819091,5.18,-0.86,11.24,1.73,1.44,2.84,3.74,-2.35,8.75,0.00,0.23,-0.51,-0.83,32.38,-29.25,-9.56
18,50,20,337090,3.70,-1.78,8.51,-1.06,0.85,0.35,4.76,-2.63,8.15,-0.01,0.29,-0.50,-0.82,17.69,4.37,-14.50
18,50,20,860033,3.27,-1.96,6.88,-0.89,0.95,-1.49,4.16,-2.89,8.39,0.02,0.27,-0.49,-0.83,15.75,6.31,-5.56
18,50,21,381090,2.47,-1.73,6.36,-2.32,1.38,-1.60,4.79,-3.12,7.96,0.01,0.31,-0.50,-0.81,16.00,-4.00,-5.44
18,50,21,900090,2.06,-1.72,6.10,-2.03,0.83,-2.43,4.09,-2.55,8.53,0.02,0.25,-0.45,-0.85,-16.81,22.37,-19.50
18,50,22,421093,1.91,0.37,7.49,-2.87,2.16,-0.87,4.79,-1.78,8.36,-0.02,0.27,-0.41,-0.87,-29.25,1.56,-3.81
18,50,22,940092,3.32,1.43,9.02,-1.87,2.69,0.79,5.19,-1.25,8.22,-0.02,0.28,-0.31,-0.91,-35.56,21.56,-11.88
18,50,23,462093,3.35,-0.80,11.78,-1.90,0.37,3.59,5.26,-1.21,8.18,0.00,0.29,-0.21,-0.93,-26.37,2.69,-8.81
18,50,23,982091,5.48,-0.23,12.32,0.22,0.38,4.07,5.26,-0.61,8.25,-0.01,0.28,-0.13,-0.95,-17.44,-8.19,-13.38
18,50,24,501092,2.80,-0.59,12.42,-2.41,0.33,4.18,5.22,-0.92,8.24,0.03,0.28,-0.07,-0.96,-25.75,17.87,-1.50
18,50,25,22093,5.35,-0.82,14.48,-0.18,-0.45,6.40,5.54,-0.36,8.08,0.03,0.30,0.03,-0.95,-14.19,2.62,-25.69
18,50,25,542093,4.04,-1.32,11.69,-0.51,-1.36,3.01,4.55,0.03,8.68,0.02,0.24,0.10,-0.97,0.31,-0.44,1.44
18,50,26,74092,2.72,-1.03,8.00,-3.12,-0.66,0.20,5.70,-0.35,7.97,0.05,0.30,0.09,-0.95,-4.62,-2.25,-6.25
18,50,26,593095,2.57,-1.62,5.88,-2.52,-1.25,-2.48,5.10,-0.37,8.36,0.05,0.27,0.11,-0.96,-1.69,16.81,4.00
18,50,27,112093,0.00,0.00,0.00,0.00,0.00,0.00,0.00,0.00,0.00,0.05,0.26,0.10,-0.96,-9.44,-17.12,-8.25
18,50,27,676091,0.00,0.00,0.00,0.00,0.00,0.00,0.00,0.00,0.00,0.00,0.00,0.00,0.00,0.00,0.00,0.00
18,50,28,278092,1.77,-0.63,6.31,-3.12,-0.36,-2.17,4.90,-0.26,8.48,0.05,0.25,0.15,-0.95,-3.00,-25.19,-9.31
18,50,28,803093,3.68,-1.37,6.71,-1.54,-1.21,-1.58,5.22,-0.15,8.29,0.06,0.27,0.17,-0.95,-9.00,-5.06,8.31
18,50,29,321093,2.14,-0.44,6.68,-3.34,-0.16,-1.43,5.48,-0.28,8.12,0.06,0.29,0.14,-0.95,-19.81,-5.87,4.69
18,50,29,842093,4.00,-0.06,8.13,-0.91,-0.15,-0.35,4.91,0.08,8.48,0.05,0.26,0.19,-0.95,-19.75,11.56,-0.19
18,50,30,362091,3.89,0.75,10.03,-1.08,0.51,1.41,4.86,0.23,8.50,0.04,0.25,0.21,-0.94,-17.44,2.37,0.00
18,50,30,880093,4.28,-0.26,11.15,-0.11,-0.73,2.40,4.39,0.47,8.75,0.03,0.23,0.23,-0.95,-10.81,11.00,7.19
18,50,31,404090,6.57,-0.10,12.91,1.01,-0.28,4.83,5.56,0.17,8.07,0.05,0.29,0.18,-0.94,4.69,-9.50,12.06
18,50,31,924090,0.00,0.00,0.00,0.00,0.00,0.00,5.90,-0.17,7.82,0.06,0.31,0.16,-0.93,1.56,-18.00,-5.50
18,50,32,498296,5.17,-0.43,11.63,-0.27,-0.34,3.37,5.19,-0.13,8.31,0.05,0.27,0.17,-0.95,3.81,6.37,-1.87
18,50,33,30090,3.80,-1.45,11.06,-1.19,-1.30,2.63,4.99,-0.14,8.44,0.07,0.26,0.22,-0.94,-7.69,12.81,-14.13
18,50,33,655044,1.98,-0.76,11.70,-3.48,-0.77,2.16,4.74,0.00,8.58,0.06,0.24,0.24,-0.94,-0.69,0.94,5.69
18,50,34,327092,4.48,-1.44,12.43,-0.71,-1.30,4.11,5.17,-0.14,8.32,0.08,0.26,0.24,-0.93,1.00,18.56,1.06
18,50,34,846091,4.59,-1.14,11.12,-0.62,-0.88,2.83,5.21,-0.25,8.29,0.07,0.27,0.21,-0.94,12.69,14.00,7.44
18,50,35,370092,4.42,-1.62,10.62,-1.06,-1.11,2.52,5.49,-0.50,8.11,0.08,0.28,0.19,-0.94,8.44,4.87,-1.69
18,50,35,891092,0.00,0.00,0.00,0.00,0.00,0.00,0.00,0.00,0.00,0.00,0.00,0.00,0.00,13.88,45.81,1.19
18,50,36,476090,3.93,-1.39,10.05,-1.53,-0.85,2.26,5.68,-0.54,7.97,0.08,0.30,0.15,-0.94,7.37,13.44,-4.00
18,50,37,2091,3.26,-0.65,9.24,-1.59,-0.15,0.74,4.85,-0.49,8.50,0.06,0.25,0.15,-0.96,22.56,17.62,-2.19
18,50,37,529090,0.00,0.00,0.00,0.00,0.00,0.00,0.00,0.00,0.00,0.00,0.00,0.00,0.00,24.87,-1.94,-17.62
18,50,38,114093,4.32,-1.23,9.12,-0.90,-0.78,1.38,5.45,-0.45,8.13,0.06,0.29,0.13,-0.95,25.00,-6.81,-3.87
18,50,38,634091,3.64,-1.55,8.02,-2.03,-0.83,0.05,5.67,-0.68,7.96,0.07,0.30,0.12,-0.94,15.63,0.44,-14.00
18,50,39,155090,2.76,-0.44,6.21,-2.78,0.13,-1.85,5.54,-0.57,8.06,0.07,0.29,0.14,-0.94,4.56,-32.94,2.62
18,50,39,679090,0.00,0.00,0.00,0.00,0.00,0.00,0.00,0.00,0.00,0.00,0.00,0.00,0.00,0.50,13.56,-5.00
18,50,40,264090,0.00,0.00,0.00,0.00,0.00,0.00,0.00,0.00,0.00,0.00,0.00,0.00,0.00,0.00,0.00,0.00
18,50,40,868091,2.55,-1.20,6.24,-3.56,0.00,-1.32,6.12,-1.20,7.56,0.10,0.32,0.09,-0.94,-6.19,-14.50,5.06
18,50,41,391091,3.03,-1.56,7.02,-2.63,-0.36,-0.89,5.66,-1.20,7.91,0.09,0.30,0.08,-0.95,-10.94,21.00,12.25
18,50,41,914093,3.07,-0.23,7.39,-2.98,0.95,-0.22,6.05,-1.18,7.61,0.09,0.32,0.06,-0.94,-17.94,12.50,6.19
18,50,42,438088,6.80,0.76,9.37,0.77,1.75,1.70,6.03,-0.98,7.66,0.08,0.32,0.08,-0.94,-13.81,28.44,13.62
18,50,42,962095,0.00,0.00,0.00,0.00,0.00,0.00,0.00,0.00,0.00,0.07,0.30,0.04,-0.95,-2.12,-7.12,-2.94
18,50,43,527094,6.67,0.63,9.63,0.58,1.04,1.96,6.09,-0.41,7.67,0.05,0.33,0.07,-0.94,-3.56,22.56,-1.75
18,50,44,47092,5.75,0.50,11.85,0.00,0.00,0.00,0.00,0.00,0.00,0.00,0.00,0.00,0.00,0.00,0.00,0.00
18,50,44,632094,7.26,-0.62,12.75,1.41,-0.10,4.89,5.84,-0.51,7.85,0.08,0.31,0.15,-0.94,-7.31,5.56,-14.94
18,50,45,154092,3.48,-0.75,10.70,-0.75,-0.16,1.88,4.24,-0.58,8.82,0.08,0.21,0.20,-0.95,-0.94,-24.44,-9.75
18,50,45,674093,2.65,-1.63,8.80,-2.90,-0.67,0.77,5.55,-0.95,8.02,0.12,0.28,0.22,-0.93,1.12,-0.31,-1.75
18,50,46,193093,4.18,-1.31,7.59,-1.72,-0.40,-0.18,5.90,-0.91,7.77,0.12,0.30,0.21,-0.92,3.94,1.56,2.62
18,50,46,715092,3.98,-1.05,7.22,-2.18,-0.01,-0.32,6.17,-1.04,7.54,0.13,0.32,0.20,-0.92,-2.50,-10.19,4.19
18,50,47,237093,4.19,-0.39,8.11,-1.60,0.56,0.26,5.79,-0.96,7.85,0.11,0.30,0.18,-0.93,5.25,14.63,9.44
18,50,47,762091,4.52,-0.09,10.12,-0.83,0.99,1.69,5.31,-0.96,8.18,0.09,0.27,0.15,-0.95,1.94,-8.25,2.50
18,50,48,282090,4.57,-0.28,10.19,-0.69,0.61,1.97,5.27,-0.90,8.21,0.09,0.27,0.14,-0.95,7.25,-1.62,-3.94
18,50,48,801041,4.41,-1.13,10.44,-0.41,-0.09,1.97,4.83,-1.01,8.47,0.09,0.25,0.13,-0.96,19.50,-7.81,0.81
18,50,49,335033,2.43,-1.51,7.86,-2.75,0.04,-0.31,5.18,-1.55,8.17,0.11,0.26,0.11,-0.95,15.88,8.88,-2.06
18,50,49,856091,2.33,-0.96,7.09,-2.36,0.52,-1.38,4.69,-1.49,8.47,0.10,0.24,0.10,-0.96,7.50,27.06,0.62
18,50,50,380091,1.82,-1.32,7.28,-3.21,0.25,-0.97,5.04,-1.57,8.26,0.11,0.26,0.08,-0.96,-7.87,1.50,1.69
18,50,50,903091,4.99,0.23,9.40,-0.10,1.28,1.09,5.10,-1.04,8.30,0.10,0.26,0.15,-0.95,-14.75,72.00,-7.00
18,50,51,423092,1.41,-0.75,9.27,-2.55,0.25,0.36,3.96,-1.00,8.91,0.09,0.20,0.16,-0.96,-1.62,47.06,5.31
18,50,51,948090,1.93,-1.59,10.44,-1.98,-0.28,1.55,3.91,-1.30,8.89,0.10,0.19,0.17,-0.96,8.75,14.50,-11.00
18,50,52,470086,1.28,-1.75,9.44,-1.63,-0.31,0.19,2.94,-1.41,9.24,0.10,0.14,0.18,-0.97,18.19,-14.75,2.81
